TITLE	
DATA TYPE	
ORIGIN	JASCO
OWNER	
DATE	21/10/27
TIME	17:16:49
SPECTROMETER/DATA SYSTEM	
RESOLUTION	
DELTAX	1
XUNITS	SEC
YUNITS	INTENSITY
FIRSTX	0.0000
LASTX	2154.0000
NPOINTS	2155
FIRSTY	490.72733
MAXY	495.28189
MINY	-288.97528
XYDATA
0.0000	490.727
1.0000	483.146
2.0000	480.519
3.0000	484.43
4.0000	484.659
5.0000	477.172
6.0000	480.977
7.0000	483.498
8.0000	481.449
9.0000	478.783
10.0000	473.783
11.0000	475.365
12.0000	478.406
13.0000	479.488
14.0000	481.209
15.0000	481.417
16.0000	482.212
17.0000	479.905
18.0000	481.438
19.0000	484.633
20.0000	483.387
21.0000	482.54
22.0000	480.821
23.0000	479.965
24.0000	479.201
25.0000	479.844
26.0000	479.719
27.0000	479.782
28.0000	482.588
29.0000	481.944
30.0000	482.297
31.0000	482.466
32.0000	479.692
33.0000	479.77
34.0000	476.865
35.0000	481.099
36.0000	483.627
37.0000	482.092
38.0000	484.097
39.0000	482.326
40.0000	483.282
41.0000	485.28
42.0000	488.392
43.0000	490.615
44.0000	488.117
45.0000	486.634
46.0000	483.894
47.0000	480.583
48.0000	482.05
49.0000	482.777
50.0000	483.547
51.0000	484.168
52.0000	484.961
53.0000	487.067
54.0000	486.704
55.0000	485.501
56.0000	483.831
57.0000	484.681
58.0000	487.854
59.0000	488.588
60.0000	486.103
61.0000	487.812
62.0000	489.988
63.0000	485.238
64.0000	485.143
65.0000	486.84
66.0000	488.816
67.0000	489.003
68.0000	487.374
69.0000	485.216
70.0000	485.697
71.0000	488.709
72.0000	488.151
73.0000	488.277
74.0000	490.525
75.0000	489.232
76.0000	484.343
77.0000	486.572
78.0000	487.404
79.0000	486.911
80.0000	492.667
81.0000	492.192
82.0000	488.558
83.0000	490.423
84.0000	489.703
85.0000	486.185
86.0000	484.063
87.0000	483.399
88.0000	487.148
89.0000	492.088
90.0000	489.26
91.0000	486.141
92.0000	488.044
93.0000	491.974
94.0000	489.973
95.0000	487.868
96.0000	485.238
97.0000	483.128
98.0000	487.473
99.0000	488.668
100.0000	491.279
101.0000	491.44
102.0000	489.066
103.0000	487.77
104.0000	489.464
105.0000	492.102
106.0000	490.931
107.0000	491.013
108.0000	489.032
109.0000	489.127
110.0000	491.128
111.0000	490.777
112.0000	490.584
113.0000	487.12
114.0000	484.744
115.0000	486.394
116.0000	486.865
117.0000	488.497
118.0000	486.988
119.0000	486.646
120.0000	491.236
121.0000	491.028
122.0000	487.758
123.0000	488.79
124.0000	490.643
125.0000	490.14
126.0000	492.531
127.0000	492.922
128.0000	491.371
129.0000	488.447
130.0000	488.609
131.0000	492.95
132.0000	493.721
133.0000	494.676
134.0000	495.282
135.0000	491.665
136.0000	489.102
137.0000	490.429
138.0000	491.833
139.0000	489.05
140.0000	491.555
141.0000	473.054
142.0000	347.361
143.0000	-288.975
144.0000	-215.066
145.0000	-204.188
146.0000	381.838
147.0000	230.902
148.0000	190.463
149.0000	189.436
150.0000	191.153
151.0000	191.361
152.0000	189.104
153.0000	188.469
154.0000	187.749
155.0000	190.015
156.0000	194.77
157.0000	194.489
158.0000	191.887
159.0000	189.041
160.0000	188.745
161.0000	192.125
162.0000	195.919
163.0000	191.962
164.0000	188.29
165.0000	188.563
166.0000	187.685
167.0000	189.873
168.0000	191.886
169.0000	190.983
170.0000	190.16
171.0000	189.796
172.0000	191.258
173.0000	194.055
174.0000	192.586
175.0000	189.81
176.0000	189.877
177.0000	189.977
178.0000	189.64
179.0000	192.297
180.0000	192.432
181.0000	190.374
182.0000	190.263
183.0000	188.993
184.0000	188.287
185.0000	189.658
186.0000	192.314
187.0000	191.524
188.0000	188.831
189.0000	187.414
190.0000	190.242
191.0000	193.686
192.0000	193.218
193.0000	192.203
194.0000	189.884
195.0000	190.65
196.0000	193.317
197.0000	193.536
198.0000	190.102
199.0000	188.198
200.0000	191.63
201.0000	191.026
202.0000	189.331
203.0000	191.911
204.0000	194.069
205.0000	193.671
206.0000	192.517
207.0000	192.527
208.0000	191.969
209.0000	189.776
210.0000	189.31
211.0000	190.06
212.0000	191.409
213.0000	191.625
214.0000	189.526
215.0000	189.438
216.0000	191.554
217.0000	194.29
218.0000	194.066
219.0000	191.295
220.0000	191.287
221.0000	191.822
222.0000	189.384
223.0000	191.715
224.0000	193.245
225.0000	190.697
226.0000	190.883
227.0000	191.98
228.0000	195.54
229.0000	194.816
230.0000	192.191
231.0000	194.738
232.0000	194.031
233.0000	192.119
234.0000	191.609
235.0000	189.639
236.0000	189.261
237.0000	189.98
238.0000	190.854
239.0000	193.553
240.0000	197.436
241.0000	194.67
242.0000	192.465
243.0000	193.827
244.0000	191.883
245.0000	191.255
246.0000	191.918
247.0000	190.624
248.0000	189.541
249.0000	192.174
250.0000	192.488
251.0000	193.234
252.0000	195.861
253.0000	195.083
254.0000	192.828
255.0000	192.796
256.0000	192.955
257.0000	191.084
258.0000	192.569
259.0000	195.649
260.0000	196.891
261.0000	195.842
262.0000	193.442
263.0000	193.679
264.0000	194.414
265.0000	193.216
266.0000	193.951
267.0000	195.42
268.0000	193.379
269.0000	192.647
270.0000	196.971
271.0000	195.292
272.0000	193.15
273.0000	194.93
274.0000	194.352
275.0000	193.48
276.0000	195.709
277.0000	194.69
278.0000	191.847
279.0000	195.269
280.0000	196.86
281.0000	196.059
282.0000	197.012
283.0000	196.536
284.0000	195.507
285.0000	196.325
286.0000	198.721
287.0000	200.161
288.0000	199.579
289.0000	198.065
290.0000	196.018
291.0000	197.438
292.0000	199.68
293.0000	197.532
294.0000	194.989
295.0000	194.842
296.0000	195.05
297.0000	195.971
298.0000	197.226
299.0000	197.198
300.0000	197.211
301.0000	198.999
302.0000	199.736
303.0000	198.939
304.0000	198.224
305.0000	196.028
306.0000	195.643
307.0000	200.328
308.0000	202.03
309.0000	200.518
310.0000	199.783
311.0000	198.5
312.0000	197.839
313.0000	197.337
314.0000	196.751
315.0000	196.122
316.0000	197.395
317.0000	197.55
318.0000	195.821
319.0000	196.257
320.0000	198.042
321.0000	199.626
322.0000	198.487
323.0000	197.739
324.0000	199.59
325.0000	198.668
326.0000	196.638
327.0000	198.486
328.0000	199.861
329.0000	199.925
330.0000	198.73
331.0000	196.351
332.0000	195.859
333.0000	199.138
334.0000	200.919
335.0000	197.178
336.0000	196.972
337.0000	197.145
338.0000	198.053
339.0000	198.484
340.0000	199.537
341.0000	200.426
342.0000	197.705
343.0000	199.119
344.0000	196.227
345.0000	196.492
346.0000	200.151
347.0000	200.815
348.0000	201.367
349.0000	199.062
350.0000	197.114
351.0000	197.835
352.0000	199.304
353.0000	197.502
354.0000	197.84
355.0000	198.063
356.0000	196.364
357.0000	197.573
358.0000	197.852
359.0000	197.558
360.0000	199.942
361.0000	200.031
362.0000	196.191
363.0000	197.83
364.0000	200.971
365.0000	197.98
366.0000	196.856
367.0000	198.992
368.0000	197.505
369.0000	196.541
370.0000	196.114
371.0000	197.927
372.0000	201.394
373.0000	199.224
374.0000	199.586
375.0000	198.977
376.0000	195.264
377.0000	195.417
378.0000	196.456
379.0000	196.12
380.0000	196.135
381.0000	198.114
382.0000	198.037
383.0000	196.358
384.0000	198.04
385.0000	197.744
386.0000	193.22
387.0000	193.472
388.0000	194.421
389.0000	193.238
390.0000	194.257
391.0000	197.185
392.0000	199.14
393.0000	198.725
394.0000	197.152
395.0000	197.387
396.0000	198.062
397.0000	196.044
398.0000	195.126
399.0000	197.032
400.0000	198.488
401.0000	197.275
402.0000	196.535
403.0000	196.128
404.0000	196.116
405.0000	195.853
406.0000	198.338
407.0000	199.319
408.0000	196.695
409.0000	196.714
410.0000	198.054
411.0000	196.536
412.0000	194.228
413.0000	196.074
414.0000	197.531
415.0000	197.769
416.0000	198.146
417.0000	198.331
418.0000	197.917
419.0000	196.793
420.0000	195.734
421.0000	196.339
422.0000	198.145
423.0000	197.153
424.0000	196.282
425.0000	195.861
426.0000	196.134
427.0000	196.911
428.0000	196.949
429.0000	197.518
430.0000	197.931
431.0000	197.297
432.0000	197.588
433.0000	197.178
434.0000	195.68
435.0000	197.781
436.0000	198.59
437.0000	196.326
438.0000	195.708
439.0000	196.463
440.0000	196.971
441.0000	199.954
442.0000	198.459
443.0000	195.166
444.0000	194.675
445.0000	192.825
446.0000	194.783
447.0000	198.086
448.0000	197.359
449.0000	196.462
450.0000	194.786
451.0000	194.262
452.0000	194.805
453.0000	194.393
454.0000	196.102
455.0000	196.862
456.0000	196.315
457.0000	195.798
458.0000	195.139
459.0000	194.32
460.0000	196.173
461.0000	196.714
462.0000	196.256
463.0000	194.823
464.0000	195.368
465.0000	196.209
466.0000	194.496
467.0000	195.421
468.0000	195.452
469.0000	196.547
470.0000	195.639
471.0000	194.212
472.0000	196.505
473.0000	194.71
474.0000	194.568
475.0000	197.092
476.0000	197.364
477.0000	195.61
478.0000	196.37
479.0000	198.219
480.0000	195.57
481.0000	196.786
482.0000	198.586
483.0000	198.674
484.0000	195.34
485.0000	193.531
486.0000	195.23
487.0000	193.765
488.0000	196.559
489.0000	196.786
490.0000	195.041
491.0000	196.845
492.0000	197.2
493.0000	194.906
494.0000	194.97
495.0000	199.22
496.0000	196.821
497.0000	193.674
498.0000	197.199
499.0000	197.685
500.0000	195.804
501.0000	197.705
502.0000	198.394
503.0000	196.087
504.0000	195.574
505.0000	195.917
506.0000	195.677
507.0000	195.132
508.0000	194.599
509.0000	194.622
510.0000	192.977
511.0000	195.198
512.0000	196.733
513.0000	194.671
514.0000	193.788
515.0000	196.188
516.0000	197.305
517.0000	193.17
518.0000	193.791
519.0000	195.358
520.0000	195.291
521.0000	197.041
522.0000	195.79
523.0000	192.414
524.0000	193.285
525.0000	194.077
526.0000	193.822
527.0000	194.923
528.0000	194.462
529.0000	196.928
530.0000	197.578
531.0000	193.611
532.0000	191.574
533.0000	194.382
534.0000	196.305
535.0000	196.416
536.0000	196.895
537.0000	195.814
538.0000	194.727
539.0000	196.364
540.0000	196.985
541.0000	197.772
542.0000	198.165
543.0000	193.237
544.0000	193.687
545.0000	194.09
546.0000	190.59
547.0000	192.004
548.0000	193.48
549.0000	194.653
550.0000	195.681
551.0000	196.747
552.0000	198.05
553.0000	197.453
554.0000	196.163
555.0000	194.685
556.0000	193.901
557.0000	195.646
558.0000	194.643
559.0000	192.988
560.0000	196.025
561.0000	194.016
562.0000	190.622
563.0000	194.761
564.0000	196.342
565.0000	195.227
566.0000	196.624
567.0000	197.242
568.0000	196.233
569.0000	196.247
570.0000	197.173
571.0000	194.782
572.0000	191.204
573.0000	191.666
574.0000	193.823
575.0000	194.943
576.0000	195.582
577.0000	194.661
578.0000	195.247
579.0000	194.992
580.0000	196.276
581.0000	196.853
582.0000	195.876
583.0000	194.451
584.0000	193.997
585.0000	195.485
586.0000	194.626
587.0000	195.609
588.0000	196.862
589.0000	194.49
590.0000	194.219
591.0000	197.628
592.0000	196.123
593.0000	192.594
594.0000	192.565
595.0000	192.953
596.0000	196.439
597.0000	197.825
598.0000	194.059
599.0000	193.522
600.0000	193.753
601.0000	195.434
602.0000	196.011
603.0000	195.226
604.0000	195.197
605.0000	196.667
606.0000	198.853
607.0000	197.507
608.0000	197.33
609.0000	197.031
610.0000	195.461
611.0000	194.719
612.0000	194.739
613.0000	194.245
614.0000	194.842
615.0000	194.463
616.0000	193.833
617.0000	194.364
618.0000	192.827
619.0000	193.2
620.0000	195.601
621.0000	195.585
622.0000	194.393
623.0000	195.263
624.0000	195.981
625.0000	194.611
626.0000	194.789
627.0000	196.562
628.0000	196.478
629.0000	195.11
630.0000	193.419
631.0000	194.099
632.0000	193.062
633.0000	192.265
634.0000	193.208
635.0000	192.61
636.0000	194.264
637.0000	192.834
638.0000	193.719
639.0000	195.91
640.0000	196.734
641.0000	196.054
642.0000	193.819
643.0000	192.951
644.0000	192.385
645.0000	196.144
646.0000	197.963
647.0000	196.536
648.0000	195.946
649.0000	197.743
650.0000	197.392
651.0000	195.257
652.0000	194.464
653.0000	192.5
654.0000	193.245
655.0000	194.654
656.0000	193.739
657.0000	194.577
658.0000	198.333
659.0000	197.06
660.0000	192.758
661.0000	192.286
662.0000	193.734
663.0000	195.325
664.0000	193.333
665.0000	193.494
666.0000	194.01
667.0000	193.126
668.0000	195.181
669.0000	195.262
670.0000	194.663
671.0000	192.345
672.0000	190.309
673.0000	190.706
674.0000	192.101
675.0000	192.533
676.0000	192.678
677.0000	190.94
678.0000	189.549
679.0000	191.743
680.0000	193.054
681.0000	192.259
682.0000	189.659
683.0000	189.723
684.0000	191.958
685.0000	192.364
686.0000	191.994
687.0000	193.328
688.0000	191.851
689.0000	191
690.0000	191.494
691.0000	191.491
692.0000	192.736
693.0000	194.188
694.0000	193.962
695.0000	190.344
696.0000	188.139
697.0000	188.675
698.0000	189.319
699.0000	192.27
700.0000	193.268
701.0000	190.331
702.0000	188.051
703.0000	187.923
704.0000	188.72
705.0000	188.467
706.0000	189.045
707.0000	190.552
708.0000	191.14
709.0000	192.423
710.0000	192.881
711.0000	190.04
712.0000	188.847
713.0000	191.12
714.0000	192.003
715.0000	189.577
716.0000	190.285
717.0000	191.449
718.0000	188.937
719.0000	188.71
720.0000	190.216
721.0000	190.77
722.0000	190.606
723.0000	187.704
724.0000	187.993
725.0000	188.183
726.0000	186.446
727.0000	187.573
728.0000	187.972
729.0000	187.808
730.0000	187.465
731.0000	188.958
732.0000	191.738
733.0000	191.905
734.0000	188.164
735.0000	186.571
736.0000	188.855
737.0000	187.741
738.0000	187.316
739.0000	189.205
740.0000	188.816
741.0000	188.592
742.0000	189.007
743.0000	188.342
744.0000	184.484
745.0000	186.374
746.0000	190.123
747.0000	187.135
748.0000	187.353
749.0000	189.175
750.0000	189.144
751.0000	187.922
752.0000	186.805
753.0000	188.039
754.0000	186.124
755.0000	184.776
756.0000	187.902
757.0000	188.75
758.0000	187.99
759.0000	189.845
760.0000	188.846
761.0000	189.491
762.0000	189.364
763.0000	185.589
764.0000	185.919
765.0000	185.856
766.0000	185.441
767.0000	186.163
768.0000	186.173
769.0000	187.097
770.0000	187.768
771.0000	187.086
772.0000	188.525
773.0000	189.047
774.0000	186.433
775.0000	186.093
776.0000	185.707
777.0000	183.903
778.0000	184.698
779.0000	185.648
780.0000	186.572
781.0000	189.008
782.0000	188.699
783.0000	186.374
784.0000	186.079
785.0000	186.917
786.0000	187.085
787.0000	186.288
788.0000	189.178
789.0000	191.484
790.0000	188.445
791.0000	187.981
792.0000	190.301
793.0000	188.536
794.0000	188.019
795.0000	188.446
796.0000	187.121
797.0000	187.709
798.0000	187.852
799.0000	186.38
800.0000	185.966
801.0000	188.173
802.0000	187.856
803.0000	187.66
804.0000	189.522
805.0000	190.706
806.0000	191.293
807.0000	188.6
808.0000	185.369
809.0000	186.718
810.0000	188.451
811.0000	188.363
812.0000	189.049
813.0000	190.704
814.0000	190.074
815.0000	186.385
816.0000	186.82
817.0000	186.663
818.0000	184.915
819.0000	184.638
820.0000	185.404
821.0000	184.049
822.0000	182.931
823.0000	185.535
824.0000	185.466
825.0000	186.71
826.0000	188.799
827.0000	189.473
828.0000	188.327
829.0000	186.456
830.0000	187.44
831.0000	187.4
832.0000	186.885
833.0000	188.807
834.0000	189.061
835.0000	186.786
836.0000	187.811
837.0000	190.521
838.0000	189.747
839.0000	188.168
840.0000	186.855
841.0000	188.36
842.0000	190.926
843.0000	189.335
844.0000	187.76
845.0000	188.513
846.0000	189.509
847.0000	189.563
848.0000	186.553
849.0000	184.581
850.0000	187.165
851.0000	187.658
852.0000	186.864
853.0000	184.907
854.0000	185.959
855.0000	188.988
856.0000	184.761
857.0000	183.169
858.0000	185.121
859.0000	186.465
860.0000	189.003
861.0000	186.495
862.0000	185.564
863.0000	186.075
864.0000	183.676
865.0000	182.791
866.0000	184.694
867.0000	184.578
868.0000	184.806
869.0000	187.166
870.0000	187.444
871.0000	186.075
872.0000	185.946
873.0000	186.77
874.0000	184.581
875.0000	183.766
876.0000	185.992
877.0000	187.075
878.0000	186.845
879.0000	185.997
880.0000	185.201
881.0000	187.062
882.0000	185.589
883.0000	186.021
884.0000	187.7
885.0000	187.72
886.0000	187.4
887.0000	185.416
888.0000	187.382
889.0000	185.272
890.0000	184.912
891.0000	187.496
892.0000	185.577
893.0000	186.655
894.0000	189.069
895.0000	187.647
896.0000	184.18
897.0000	183.034
898.0000	185.703
899.0000	186.381
900.0000	186.923
901.0000	185.79
902.0000	184.989
903.0000	186.426
904.0000	185.371
905.0000	187.118
906.0000	186.121
907.0000	183.713
908.0000	185.937
909.0000	187.172
910.0000	186.656
911.0000	188.525
912.0000	186.502
913.0000	183.622
914.0000	184.49
915.0000	186.537
916.0000	185.964
917.0000	183.525
918.0000	187.465
919.0000	186.893
920.0000	185.084
921.0000	186.317
922.0000	185.425
923.0000	184.808
924.0000	184.313
925.0000	185.624
926.0000	184.517
927.0000	183.49
928.0000	184.179
929.0000	185.09
930.0000	186.15
931.0000	183.703
932.0000	182.991
933.0000	185.485
934.0000	184.002
935.0000	184.484
936.0000	186.758
937.0000	184.055
938.0000	182.395
939.0000	183.389
940.0000	183.364
941.0000	184.99
942.0000	184.408
943.0000	183.992
944.0000	184.034
945.0000	183.449
946.0000	184.916
947.0000	184.477
948.0000	185.347
949.0000	185.538
950.0000	183.875
951.0000	185.532
952.0000	186.482
953.0000	185.224
954.0000	185.298
955.0000	184.999
956.0000	183.971
957.0000	181.616
958.0000	183.574
959.0000	184.866
960.0000	184.497
961.0000	185.621
962.0000	185.018
963.0000	184.183
964.0000	181.985
965.0000	182.787
966.0000	185.714
967.0000	185.674
968.0000	183.67
969.0000	182.405
970.0000	182.685
971.0000	182.76
972.0000	182.597
973.0000	182.988
974.0000	182.559
975.0000	183.182
976.0000	183.79
977.0000	182.715
978.0000	184.009
979.0000	184.471
980.0000	182.867
981.0000	183.217
982.0000	183.883
983.0000	183.794
984.0000	181.145
985.0000	181.538
986.0000	185.702
987.0000	184.38
988.0000	182.942
989.0000	185.068
990.0000	185.078
991.0000	181.898
992.0000	181.56
993.0000	182.6
994.0000	181.214
995.0000	179.485
996.0000	182.032
997.0000	183.169
998.0000	182.377
999.0000	183.234
1000.0000	181.843
1001.0000	181.233
1002.0000	184.663
1003.0000	187.076
1004.0000	184.367
1005.0000	182.053
1006.0000	182.63
1007.0000	182.966
1008.0000	183.997
1009.0000	185.244
1010.0000	181.553
1011.0000	180.798
1012.0000	181.791
1013.0000	182.819
1014.0000	183.936
1015.0000	184.358
1016.0000	187.237
1017.0000	187.493
1018.0000	185.175
1019.0000	184.349
1020.0000	184.369
1021.0000	183.628
1022.0000	181.167
1023.0000	182.236
1024.0000	183.884
1025.0000	182.997
1026.0000	182.657
1027.0000	181.927
1028.0000	183.713
1029.0000	183.047
1030.0000	180.886
1031.0000	182.152
1032.0000	183.628
1033.0000	182.83
1034.0000	180.565
1035.0000	179.936
1036.0000	181.132
1037.0000	181.811
1038.0000	181.092
1039.0000	180.825
1040.0000	182.285
1041.0000	182.655
1042.0000	183.334
1043.0000	183.048
1044.0000	182.468
1045.0000	182.938
1046.0000	180.62
1047.0000	179.858
1048.0000	183.503
1049.0000	185.127
1050.0000	183.349
1051.0000	181.598
1052.0000	180.128
1053.0000	180.082
1054.0000	180.744
1055.0000	183.704
1056.0000	183.97
1057.0000	181.479
1058.0000	181.304
1059.0000	181.938
1060.0000	184.297
1061.0000	182.759
1062.0000	179.7
1063.0000	181.647
1064.0000	183.697
1065.0000	180.635
1066.0000	181.316
1067.0000	184.894
1068.0000	183.439
1069.0000	180.967
1070.0000	179.906
1071.0000	179.884
1072.0000	181.759
1073.0000	183.153
1074.0000	182.963
1075.0000	182.169
1076.0000	181.212
1077.0000	182.786
1078.0000	183.098
1079.0000	181.165
1080.0000	180.725
1081.0000	180.045
1082.0000	179.759
1083.0000	181.955
1084.0000	180.177
1085.0000	179.727
1086.0000	183.166
1087.0000	182.551
1088.0000	181.489
1089.0000	180.498
1090.0000	177.9
1091.0000	177.294
1092.0000	179.405
1093.0000	180.865
1094.0000	181.088
1095.0000	181.691
1096.0000	178.979
1097.0000	177.637
1098.0000	181.674
1099.0000	182.074
1100.0000	180.38
1101.0000	180.65
1102.0000	182.09
1103.0000	182.423
1104.0000	179.122
1105.0000	180.011
1106.0000	181.441
1107.0000	179.084
1108.0000	178.64
1109.0000	179.725
1110.0000	179.462
1111.0000	180.169
1112.0000	181.201
1113.0000	179.673
1114.0000	177.69
1115.0000	178.328
1116.0000	180.769
1117.0000	182.035
1118.0000	181.966
1119.0000	180.549
1120.0000	181.233
1121.0000	182.44
1122.0000	181.014
1123.0000	180.159
1124.0000	178.814
1125.0000	178.545
1126.0000	179.602
1127.0000	179.729
1128.0000	179.716
1129.0000	179.164
1130.0000	178.404
1131.0000	177.487
1132.0000	176.911
1133.0000	180.108
1134.0000	182.406
1135.0000	178.866
1136.0000	179.886
1137.0000	181.291
1138.0000	179.563
1139.0000	180.49
1140.0000	178.474
1141.0000	176.812
1142.0000	177.398
1143.0000	178.022
1144.0000	178.262
1145.0000	177.788
1146.0000	178.382
1147.0000	177.338
1148.0000	178.198
1149.0000	180.98
1150.0000	179.638
1151.0000	178.15
1152.0000	179.151
1153.0000	179.517
1154.0000	179.405
1155.0000	179.866
1156.0000	178.523
1157.0000	177.772
1158.0000	178.78
1159.0000	179.44
1160.0000	180.46
1161.0000	178.283
1162.0000	178.646
1163.0000	179.948
1164.0000	178.893
1165.0000	178.606
1166.0000	177.976
1167.0000	180.511
1168.0000	178.286
1169.0000	176.802
1170.0000	179.228
1171.0000	178.082
1172.0000	179.179
1173.0000	179.792
1174.0000	180.639
1175.0000	181.472
1176.0000	180.729
1177.0000	180.306
1178.0000	179.267
1179.0000	179.866
1180.0000	178.633
1181.0000	178.01
1182.0000	177.431
1183.0000	176.906
1184.0000	176.877
1185.0000	173.917
1186.0000	175.049
1187.0000	177.917
1188.0000	179.956
1189.0000	181.636
1190.0000	178.389
1191.0000	177.581
1192.0000	179.449
1193.0000	176.928
1194.0000	176.505
1195.0000	177.88
1196.0000	177.572
1197.0000	176.02
1198.0000	176.027
1199.0000	177.27
1200.0000	177.32
1201.0000	176.05
1202.0000	174.327
1203.0000	173.873
1204.0000	174.734
1205.0000	177.55
1206.0000	179.883
1207.0000	178.897
1208.0000	176.323
1209.0000	176.24
1210.0000	176.501
1211.0000	176.049
1212.0000	175.673
1213.0000	175.85
1214.0000	176.358
1215.0000	176.322
1216.0000	178.022
1217.0000	180.188
1218.0000	177.067
1219.0000	176.505
1220.0000	178.931
1221.0000	175.667
1222.0000	177.055
1223.0000	179.166
1224.0000	176.719
1225.0000	177.103
1226.0000	178.229
1227.0000	178.715
1228.0000	178.098
1229.0000	176.839
1230.0000	176.76
1231.0000	177.829
1232.0000	175.368
1233.0000	174.546
1234.0000	175.627
1235.0000	177.077
1236.0000	178.732
1237.0000	178.367
1238.0000	177.498
1239.0000	174.998
1240.0000	174.02
1241.0000	174.273
1242.0000	177.372
1243.0000	176.771
1244.0000	172.507
1245.0000	174.171
1246.0000	176.641
1247.0000	176.431
1248.0000	177.011
1249.0000	177.248
1250.0000	178.169
1251.0000	180.217
1252.0000	178.444
1253.0000	175.196
1254.0000	177.175
1255.0000	179.149
1256.0000	178.657
1257.0000	177.809
1258.0000	178.028
1259.0000	177.589
1260.0000	178.021
1261.0000	179.828
1262.0000	176.512
1263.0000	175.001
1264.0000	175.981
1265.0000	175.478
1266.0000	177.925
1267.0000	178.425
1268.0000	176.898
1269.0000	175.838
1270.0000	175.981
1271.0000	176.435
1272.0000	175.154
1273.0000	175.625
1274.0000	175.151
1275.0000	175.123
1276.0000	175.25
1277.0000	173.52
1278.0000	173.894
1279.0000	175.14
1280.0000	175.896
1281.0000	177.354
1282.0000	176.451
1283.0000	176.401
1284.0000	177.848
1285.0000	177.618
1286.0000	177.067
1287.0000	175.957
1288.0000	174.069
1289.0000	174.811
1290.0000	177.332
1291.0000	176.528
1292.0000	175.514
1293.0000	176.305
1294.0000	177.041
1295.0000	175.375
1296.0000	175.607
1297.0000	177.557
1298.0000	177.774
1299.0000	175.13
1300.0000	173.013
1301.0000	173.944
1302.0000	175.932
1303.0000	177.483
1304.0000	177.441
1305.0000	176.792
1306.0000	174.698
1307.0000	174.757
1308.0000	177.599
1309.0000	178.72
1310.0000	177.475
1311.0000	176.484
1312.0000	177.143
1313.0000	176.937
1314.0000	175.753
1315.0000	175.326
1316.0000	173.44
1317.0000	173.388
1318.0000	175.723
1319.0000	177.611
1320.0000	176.662
1321.0000	174.514
1322.0000	175.971
1323.0000	174.306
1324.0000	175.185
1325.0000	176.933
1326.0000	173.129
1327.0000	173.415
1328.0000	174.273
1329.0000	174.813
1330.0000	176.953
1331.0000	175.392
1332.0000	174.399
1333.0000	175.577
1334.0000	174.712
1335.0000	172.414
1336.0000	172.251
1337.0000	174.963
1338.0000	175.985
1339.0000	175.672
1340.0000	177.912
1341.0000	178.032
1342.0000	176.178
1343.0000	175.97
1344.0000	175.363
1345.0000	176.293
1346.0000	175.685
1347.0000	175.814
1348.0000	173.747
1349.0000	173.625
1350.0000	178.064
1351.0000	177.3
1352.0000	171.826
1353.0000	170.896
1354.0000	176.688
1355.0000	176.505
1356.0000	172.232
1357.0000	173.765
1358.0000	176.1
1359.0000	176.691
1360.0000	175.366
1361.0000	173.63
1362.0000	173.094
1363.0000	172.634
1364.0000	171.706
1365.0000	173.175
1366.0000	173.701
1367.0000	175.167
1368.0000	176.684
1369.0000	173.374
1370.0000	173.342
1371.0000	173.483
1372.0000	173.084
1373.0000	172.948
1374.0000	173.474
1375.0000	173.684
1376.0000	174.589
1377.0000	175.651
1378.0000	174.21
1379.0000	173.653
1380.0000	173.859
1381.0000	173.124
1382.0000	172.117
1383.0000	172.237
1384.0000	172.709
1385.0000	173.559
1386.0000	175.986
1387.0000	174.604
1388.0000	174.268
1389.0000	174.068
1390.0000	172.228
1391.0000	173.987
1392.0000	175.083
1393.0000	174.236
1394.0000	173.4
1395.0000	174.747
1396.0000	174.214
1397.0000	172.106
1398.0000	173.277
1399.0000	174.957
1400.0000	175.523
1401.0000	175.989
1402.0000	174.274
1403.0000	172.957
1404.0000	173.479
1405.0000	174
1406.0000	174.221
1407.0000	174.225
1408.0000	173.691
1409.0000	173.213
1410.0000	173.032
1411.0000	172.314
1412.0000	171.06
1413.0000	172.374
1414.0000	174.34
1415.0000	174.202
1416.0000	172.795
1417.0000	172.649
1418.0000	175.306
1419.0000	175.779
1420.0000	173.705
1421.0000	172.393
1422.0000	173.691
1423.0000	173.754
1424.0000	172.146
1425.0000	172.679
1426.0000	173.428
1427.0000	174.653
1428.0000	174.957
1429.0000	172.979
1430.0000	174.651
1431.0000	175.051
1432.0000	171.388
1433.0000	170.202
1434.0000	172.588
1435.0000	173.742
1436.0000	173.507
1437.0000	174.235
1438.0000	174.115
1439.0000	174.622
1440.0000	176.06
1441.0000	175.372
1442.0000	172.265
1443.0000	171.364
1444.0000	172.982
1445.0000	173.713
1446.0000	173.449
1447.0000	173.435
1448.0000	174.311
1449.0000	174.871
1450.0000	173.531
1451.0000	172.244
1452.0000	171.246
1453.0000	173.613
1454.0000	175.746
1455.0000	172.244
1456.0000	170.574
1457.0000	171.957
1458.0000	172.145
1459.0000	171.281
1460.0000	171.258
1461.0000	174.467
1462.0000	175.918
1463.0000	173.621
1464.0000	171.481
1465.0000	171.868
1466.0000	172.765
1467.0000	171.322
1468.0000	174.918
1469.0000	177.458
1470.0000	174.145
1471.0000	172.695
1472.0000	172.892
1473.0000	171.712
1474.0000	170.902
1475.0000	172.656
1476.0000	172.061
1477.0000	170.622
1478.0000	172.957
1479.0000	174.228
1480.0000	172.428
1481.0000	171.863
1482.0000	173.528
1483.0000	173.383
1484.0000	171.871
1485.0000	170.955
1486.0000	171.553
1487.0000	172.631
1488.0000	172.008
1489.0000	171.026
1490.0000	171.665
1491.0000	172.02
1492.0000	171.781
1493.0000	171.473
1494.0000	171.839
1495.0000	171.063
1496.0000	167.315
1497.0000	169.858
1498.0000	173.727
1499.0000	172.898
1500.0000	171.645
1501.0000	172.259
1502.0000	172.339
1503.0000	172.091
1504.0000	171.956
1505.0000	171.133
1506.0000	172.604
1507.0000	173.077
1508.0000	170.639
1509.0000	170.188
1510.0000	173.129
1511.0000	173.595
1512.0000	173.471
1513.0000	173.753
1514.0000	173.231
1515.0000	174.305
1516.0000	173.098
1517.0000	170.317
1518.0000	171.178
1519.0000	172.085
1520.0000	172.546
1521.0000	173.784
1522.0000	172.373
1523.0000	170.125
1524.0000	170.539
1525.0000	172.714
1526.0000	171.625
1527.0000	170.927
1528.0000	172.816
1529.0000	173.768
1530.0000	174.288
1531.0000	175.633
1532.0000	173.722
1533.0000	171.147
1534.0000	170.544
1535.0000	170.413
1536.0000	171.132
1537.0000	173.074
1538.0000	173.543
1539.0000	171.906
1540.0000	171.35
1541.0000	171.786
1542.0000	172.765
1543.0000	171.685
1544.0000	170.712
1545.0000	172.663
1546.0000	173.937
1547.0000	171.796
1548.0000	172.522
1549.0000	172.747
1550.0000	170.254
1551.0000	172.28
1552.0000	174.852
1553.0000	174.652
1554.0000	175.982
1555.0000	174.954
1556.0000	171.318
1557.0000	169.801
1558.0000	170.508
1559.0000	170.792
1560.0000	170.764
1561.0000	170.263
1562.0000	171.533
1563.0000	171.844
1564.0000	172.05
1565.0000	172.287
1566.0000	169.519
1567.0000	169.944
1568.0000	171.138
1569.0000	171.483
1570.0000	170.899
1571.0000	170.536
1572.0000	170.346
1573.0000	170.667
1574.0000	173.789
1575.0000	177.116
1576.0000	176.268
1577.0000	173.03
1578.0000	174.38
1579.0000	175.829
1580.0000	173.191
1581.0000	173.026
1582.0000	170.94
1583.0000	169.017
1584.0000	170.4
1585.0000	170.267
1586.0000	170.423
1587.0000	172.261
1588.0000	172.004
1589.0000	169.56
1590.0000	168.843
1591.0000	172.425
1592.0000	173.365
1593.0000	170.32
1594.0000	169.484
1595.0000	172.777
1596.0000	172.4
1597.0000	169.602
1598.0000	171.383
1599.0000	171.501
1600.0000	171.964
1601.0000	171.163
1602.0000	170.753
1603.0000	171.095
1604.0000	171.751
1605.0000	172.99
1606.0000	171.429
1607.0000	169.828
1608.0000	170.067
1609.0000	170.398
1610.0000	172.303
1611.0000	174.757
1612.0000	173.263
1613.0000	172.468
1614.0000	171.187
1615.0000	167.9
1616.0000	170.097
1617.0000	173.496
1618.0000	172.155
1619.0000	171.138
1620.0000	173.349
1621.0000	174.656
1622.0000	173.822
1623.0000	173.601
1624.0000	170.947
1625.0000	168.991
1626.0000	171.211
1627.0000	170.971
1628.0000	172.401
1629.0000	173.87
1630.0000	172.767
1631.0000	172.235
1632.0000	170.565
1633.0000	171.139
1634.0000	171.174
1635.0000	172.565
1636.0000	173.333
1637.0000	171.236
1638.0000	172.634
1639.0000	173.965
1640.0000	171.486
1641.0000	170.26
1642.0000	170.702
1643.0000	170.03
1644.0000	170.719
1645.0000	170.231
1646.0000	170.771
1647.0000	171.007
1648.0000	171.02
1649.0000	170.96
1650.0000	170.272
1651.0000	171.999
1652.0000	171.985
1653.0000	170.721
1654.0000	170.767
1655.0000	170.598
1656.0000	170.245
1657.0000	169.758
1658.0000	169.345
1659.0000	169.759
1660.0000	169.236
1661.0000	170.607
1662.0000	172.265
1663.0000	171.796
1664.0000	172.694
1665.0000	172.457
1666.0000	169.985
1667.0000	170.933
1668.0000	172.03
1669.0000	171.625
1670.0000	171.199
1671.0000	171.825
1672.0000	171.977
1673.0000	169.227
1674.0000	168.277
1675.0000	169.893
1676.0000	172.18
1677.0000	172.688
1678.0000	171.002
1679.0000	171.053
1680.0000	171.969
1681.0000	173.351
1682.0000	173.777
1683.0000	171.128
1684.0000	168.864
1685.0000	168.264
1686.0000	167.842
1687.0000	170.378
1688.0000	172.785
1689.0000	169.689
1690.0000	170.417
1691.0000	171.547
1692.0000	170.067
1693.0000	169.904
1694.0000	171.063
1695.0000	172.066
1696.0000	171.435
1697.0000	171.478
1698.0000	172.988
1699.0000	172.31
1700.0000	170.371
1701.0000	170.801
1702.0000	171.391
1703.0000	171.869
1704.0000	171.963
1705.0000	169.744
1706.0000	169.29
1707.0000	170.464
1708.0000	171.8
1709.0000	172.718
1710.0000	173.784
1711.0000	173.174
1712.0000	170.527
1713.0000	169.829
1714.0000	168.566
1715.0000	168.31
1716.0000	168.894
1717.0000	169.789
1718.0000	169.549
1719.0000	171.808
1720.0000	172.444
1721.0000	170.236
1722.0000	169.179
1723.0000	169.806
1724.0000	171.814
1725.0000	171.688
1726.0000	169.103
1727.0000	167.758
1728.0000	170.554
1729.0000	171.21
1730.0000	171.337
1731.0000	172.112
1732.0000	171.381
1733.0000	171.581
1734.0000	169.467
1735.0000	167.333
1736.0000	168.343
1737.0000	171.185
1738.0000	172.757
1739.0000	172.479
1740.0000	169.978
1741.0000	170.242
1742.0000	172.231
1743.0000	171.063
1744.0000	171.105
1745.0000	171.64
1746.0000	170.744
1747.0000	172.18
1748.0000	173.204
1749.0000	170.802
1750.0000	169.845
1751.0000	169.495
1752.0000	172.161
1753.0000	174.439
1754.0000	170.831
1755.0000	167.726
1756.0000	169.014
1757.0000	167.831
1758.0000	168.035
1759.0000	172.844
1760.0000	173.13
1761.0000	171.818
1762.0000	172.7
1763.0000	170.305
1764.0000	169.533
1765.0000	169.275
1766.0000	169.807
1767.0000	170.282
1768.0000	167.656
1769.0000	167.33
1770.0000	167.645
1771.0000	167.532
1772.0000	168.262
1773.0000	171.347
1774.0000	171.551
1775.0000	169.82
1776.0000	169.174
1777.0000	169.331
1778.0000	170.271
1779.0000	169.086
1780.0000	168.97
1781.0000	170.639
1782.0000	172.424
1783.0000	172.78
1784.0000	173.673
1785.0000	172.261
1786.0000	170.38
1787.0000	171.385
1788.0000	169.231
1789.0000	167.207
1790.0000	167.305
1791.0000	167.996
1792.0000	168.968
1793.0000	169.492
1794.0000	169.89
1795.0000	170.309
1796.0000	171.386
1797.0000	169.325
1798.0000	165.889
1799.0000	166.979
1800.0000	167.135
1801.0000	167.446
1802.0000	169.452
1803.0000	170.404
1804.0000	168.569
1805.0000	169.98
1806.0000	171.542
1807.0000	170.22
1808.0000	168.478
1809.0000	167.967
1810.0000	172.117
1811.0000	172.631
1812.0000	169.807
1813.0000	168.946
1814.0000	171.118
1815.0000	172.586
1816.0000	171.277
1817.0000	169.371
1818.0000	168.383
1819.0000	168.012
1820.0000	170.302
1821.0000	170.968
1822.0000	167.91
1823.0000	169.384
1824.0000	170.291
1825.0000	169.553
1826.0000	168.655
1827.0000	168.785
1828.0000	173.382
1829.0000	173.004
1830.0000	172.032
1831.0000	170.882
1832.0000	169.385
1833.0000	170.231
1834.0000	168.888
1835.0000	168.584
1836.0000	168.908
1837.0000	168.779
1838.0000	168.884
1839.0000	168.931
1840.0000	169.312
1841.0000	171.728
1842.0000	169.843
1843.0000	165.412
1844.0000	169.111
1845.0000	172.111
1846.0000	167.501
1847.0000	169.232
1848.0000	171.11
1849.0000	168.599
1850.0000	169.276
1851.0000	169.843
1852.0000	170.432
1853.0000	169.001
1854.0000	169.241
1855.0000	169.102
1856.0000	168.665
1857.0000	168.511
1858.0000	166.558
1859.0000	168.623
1860.0000	170.74
1861.0000	171.448
1862.0000	171.002
1863.0000	168.711
1864.0000	170.157
1865.0000	171.577
1866.0000	169.086
1867.0000	167.601
1868.0000	167.426
1869.0000	168.128
1870.0000	167.115
1871.0000	166.892
1872.0000	169.499
1873.0000	170.747
1874.0000	168.899
1875.0000	166.966
1876.0000	169.183
1877.0000	171.218
1878.0000	171.67
1879.0000	168.446
1880.0000	167.814
1881.0000	168.325
1882.0000	167.621
1883.0000	168.564
1884.0000	167.754
1885.0000	168.408
1886.0000	167.853
1887.0000	167.781
1888.0000	169.973
1889.0000	169.332
1890.0000	168.007
1891.0000	169.43
1892.0000	168.567
1893.0000	168.246
1894.0000	170.172
1895.0000	169.543
1896.0000	168.397
1897.0000	167.59
1898.0000	169.078
1899.0000	170.154
1900.0000	168.727
1901.0000	169.538
1902.0000	170.902
1903.0000	171.129
1904.0000	169.04
1905.0000	167.893
1906.0000	167.079
1907.0000	167.456
1908.0000	169.199
1909.0000	168.86
1910.0000	168.491
1911.0000	167.059
1912.0000	167.435
1913.0000	167.426
1914.0000	167.755
1915.0000	168.175
1916.0000	167.467
1917.0000	169.85
1918.0000	171.041
1919.0000	169.34
1920.0000	167.106
1921.0000	166.964
1922.0000	168.365
1923.0000	170.049
1924.0000	169.684
1925.0000	168.202
1926.0000	168.084
1927.0000	169.784
1928.0000	168.887
1929.0000	164.481
1930.0000	167.499
1931.0000	170.51
1932.0000	167.4
1933.0000	166.755
1934.0000	168.281
1935.0000	168.092
1936.0000	168.178
1937.0000	168.044
1938.0000	167.999
1939.0000	169.571
1940.0000	169.396
1941.0000	167.579
1942.0000	166.779
1943.0000	167.355
1944.0000	169.109
1945.0000	169.712
1946.0000	168.104
1947.0000	168.689
1948.0000	168.28
1949.0000	168.014
1950.0000	169.368
1951.0000	167.507
1952.0000	170.328
1953.0000	170.764
1954.0000	166.129
1955.0000	166.057
1956.0000	166.971
1957.0000	166.629
1958.0000	165.358
1959.0000	166.705
1960.0000	169.325
1961.0000	170.484
1962.0000	168.939
1963.0000	166.458
1964.0000	165.562
1965.0000	167.084
1966.0000	167.869
1967.0000	167.153
1968.0000	167.921
1969.0000	167.898
1970.0000	166.48
1971.0000	167.547
1972.0000	168.048
1973.0000	168.026
1974.0000	168.105
1975.0000	166.542
1976.0000	165.473
1977.0000	166.48
1978.0000	166.451
1979.0000	165.647
1980.0000	166.455
1981.0000	168.418
1982.0000	169.749
1983.0000	168.341
1984.0000	167.283
1985.0000	167.066
1986.0000	167.677
1987.0000	167.924
1988.0000	168.719
1989.0000	169.283
1990.0000	168.523
1991.0000	168.166
1992.0000	167.318
1993.0000	165.971
1994.0000	167.471
1995.0000	167.769
1996.0000	167.216
1997.0000	168.239
1998.0000	167.029
1999.0000	168.004
2000.0000	169.641
2001.0000	168.53
2002.0000	169.083
2003.0000	169.108
2004.0000	169.604
2005.0000	166.952
2006.0000	163.697
2007.0000	165.576
2008.0000	168.676
2009.0000	168.166
2010.0000	165.792
2011.0000	167.634
2012.0000	168.468
2013.0000	166.693
2014.0000	168.735
2015.0000	169.726
2016.0000	167.639
2017.0000	167.892
2018.0000	168.592
2019.0000	167.191
2020.0000	166.908
2021.0000	167.997
2022.0000	167.841
2023.0000	167.283
2024.0000	166.308
2025.0000	165.037
2026.0000	165.019
2027.0000	169.051
2028.0000	169.62
2029.0000	167.412
2030.0000	168.531
2031.0000	168.006
2032.0000	167.407
2033.0000	168.127
2034.0000	168.431
2035.0000	167.899
2036.0000	168.053
2037.0000	168.189
2038.0000	167.33
2039.0000	167.831
2040.0000	166.843
2041.0000	164.636
2042.0000	166.999
2043.0000	169.201
2044.0000	169.147
2045.0000	169.02
2046.0000	168.08
2047.0000	167.9
2048.0000	167.982
2049.0000	166.542
2050.0000	165.701
2051.0000	166.388
2052.0000	167.977
2053.0000	168.002
2054.0000	166.413
2055.0000	167.398
2056.0000	167.864
2057.0000	166.626
2058.0000	167.247
2059.0000	167.796
2060.0000	166.633
2061.0000	167.965
2062.0000	167.18
2063.0000	163.622
2064.0000	166.24
2065.0000	167.55
2066.0000	165.996
2067.0000	166.358
2068.0000	165.361
2069.0000	166.552
2070.0000	166.993
2071.0000	164.255
2072.0000	164.185
2073.0000	166.204
2074.0000	167.107
2075.0000	166.463
2076.0000	165.108
2077.0000	164.91
2078.0000	166.164
2079.0000	167.169
2080.0000	166.864
2081.0000	166.967
2082.0000	167.529
2083.0000	164.951
2084.0000	163.741
2085.0000	164.999
2086.0000	165.189
2087.0000	167.075
2088.0000	167.796
2089.0000	167.541
2090.0000	168.742
2091.0000	168.752
2092.0000	166.943
2093.0000	164.893
2094.0000	165.5
2095.0000	167.397
2096.0000	167.936
2097.0000	167.842
2098.0000	167.767
2099.0000	166.876
2100.0000	167.63
2101.0000	167.851
2102.0000	165.129
2103.0000	165.863
2104.0000	167.198
2105.0000	166.635
2106.0000	165.796
2107.0000	166.442
2108.0000	169.138
2109.0000	169.16
2110.0000	166.267
2111.0000	165.474
2112.0000	168.351
2113.0000	169.452
2114.0000	166.955
2115.0000	166.707
2116.0000	167.733
2117.0000	164.616
2118.0000	164.368
2119.0000	167.438
2120.0000	168.092
2121.0000	168.595
2122.0000	168.899
2123.0000	170.022
2124.0000	169.378
2125.0000	165.132
2126.0000	164.98
2127.0000	168.935
2128.0000	169.718
2129.0000	167.222
2130.0000	167.727
2131.0000	168.165
2132.0000	166.559
2133.0000	164.731
2134.0000	164.387
2135.0000	165.357
2136.0000	166.137
2137.0000	166.221
2138.0000	165.752
2139.0000	165.708
2140.0000	167.184
2141.0000	166.907
2142.0000	165.823
2143.0000	167.645
2144.0000	166.363
2145.0000	166.482
2146.0000	165.652
2147.0000	164.295
2148.0000	167.108
2149.0000	168.08
2150.0000	166.131
2151.0000	164.23
2152.0000	163.336
2153.0000	163.308
2154.0000	164.981
