TITLE	
DATA TYPE	
ORIGIN	JASCO
OWNER	
DATE	21/10/28
TIME	18:24:18
SPECTROMETER/DATA SYSTEM	
RESOLUTION	
DELTAX	1
XUNITS	SEC
YUNITS	INTENSITY
FIRSTX	0.0000
LASTX	5000.0000
NPOINTS	5001
FIRSTY	424.76028
MAXY	424.76028
MINY	-314.49094
XYDATA
0.0000	424.76
1.0000	372.516
2.0000	370.378
3.0000	370.875
4.0000	371.763
5.0000	369.102
6.0000	369.734
7.0000	373.722
8.0000	368.977
9.0000	367.308
10.0000	366.861
11.0000	367.737
12.0000	368.375
13.0000	366.778
14.0000	369.562
15.0000	372.923
16.0000	370.204
17.0000	364.396
18.0000	363.778
19.0000	366.871
20.0000	368.671
21.0000	369.672
22.0000	372.075
23.0000	367.788
24.0000	366.021
25.0000	369.368
26.0000	370.187
27.0000	370.899
28.0000	370.042
29.0000	368.215
30.0000	370.918
31.0000	370.798
32.0000	364.587
33.0000	368.668
34.0000	370.715
35.0000	368.479
36.0000	365.97
37.0000	367.016
38.0000	369.125
39.0000	365.804
40.0000	367.101
41.0000	369.847
42.0000	370.511
43.0000	368.204
44.0000	366.768
45.0000	367.125
46.0000	364.324
47.0000	363.801
48.0000	365.559
49.0000	363.548
50.0000	361.012
51.0000	363.708
52.0000	366.957
53.0000	365.671
54.0000	363.233
55.0000	351.113
56.0000	281.195
57.0000	-314.491
58.0000	-219.426
59.0000	-206.349
60.0000	284.064
61.0000	217.619
62.0000	175.771
63.0000	176.803
64.0000	177.059
65.0000	176.304
66.0000	177.162
67.0000	176.874
68.0000	178.692
69.0000	177.35
70.0000	175.7
71.0000	179.316
72.0000	178.953
73.0000	178.483
74.0000	180.237
75.0000	179.105
76.0000	180.24
77.0000	179.725
78.0000	178.306
79.0000	180.431
80.0000	180.95
81.0000	178.327
82.0000	180.406
83.0000	182.565
84.0000	182.277
85.0000	182.261
86.0000	182.698
87.0000	180.871
88.0000	178.304
89.0000	180.208
90.0000	179.12
91.0000	179.461
92.0000	186.753
93.0000	186.591
94.0000	181.091
95.0000	182.548
96.0000	183.153
97.0000	181.377
98.0000	182.575
99.0000	180.414
100.0000	178.336
101.0000	179.227
102.0000	181.614
103.0000	184.017
104.0000	185.492
105.0000	185.014
106.0000	180.482
107.0000	181.39
108.0000	182.735
109.0000	183.574
110.0000	183.403
111.0000	181.87
112.0000	182.089
113.0000	180.56
114.0000	180.667
115.0000	181.999
116.0000	185.635
117.0000	184.733
118.0000	182.947
119.0000	185.072
120.0000	185.979
121.0000	185.315
122.0000	185.03
123.0000	186.567
124.0000	183.906
125.0000	183.399
126.0000	186.59
127.0000	186.229
128.0000	184.936
129.0000	183.685
130.0000	181.524
131.0000	184.973
132.0000	187.292
133.0000	185.768
134.0000	184.033
135.0000	183.67
136.0000	185.133
137.0000	183.568
138.0000	184.671
139.0000	186.105
140.0000	186.598
141.0000	186.615
142.0000	185.294
143.0000	185.747
144.0000	186.638
145.0000	187.003
146.0000	186.617
147.0000	186.941
148.0000	188.715
149.0000	189.098
150.0000	188.393
151.0000	189.083
152.0000	188.783
153.0000	187.231
154.0000	184.548
155.0000	184.658
156.0000	185.653
157.0000	185.479
158.0000	187.599
159.0000	188.657
160.0000	189.91
161.0000	191.198
162.0000	190.711
163.0000	190.679
164.0000	191.405
165.0000	190.339
166.0000	188.454
167.0000	189.628
168.0000	191.593
169.0000	190.624
170.0000	189.63
171.0000	188.567
172.0000	191.242
173.0000	192.186
174.0000	189.582
175.0000	191.184
176.0000	190.166
177.0000	190.29
178.0000	192.164
179.0000	191.706
180.0000	190.522
181.0000	189.602
182.0000	190.626
183.0000	192.893
184.0000	192.05
185.0000	190.195
186.0000	191.068
187.0000	192.179
188.0000	193.882
189.0000	191.594
190.0000	191.684
191.0000	196.747
192.0000	196.023
193.0000	190.805
194.0000	192.556
195.0000	197.49
196.0000	194.478
197.0000	192.07
198.0000	193.292
199.0000	193.625
200.0000	194.328
201.0000	194.425
202.0000	195.72
203.0000	193.863
204.0000	192.766
205.0000	195.184
206.0000	194.725
207.0000	194.438
208.0000	195.018
209.0000	196.288
210.0000	195.544
211.0000	195.384
212.0000	196.543
213.0000	195.271
214.0000	195.772
215.0000	195.021
216.0000	193.817
217.0000	195.753
218.0000	196.438
219.0000	194.775
220.0000	193.773
221.0000	195.297
222.0000	197.044
223.0000	199.096
224.0000	199.46
225.0000	198.691
226.0000	195.796
227.0000	197.038
228.0000	201.751
229.0000	200.76
230.0000	199.134
231.0000	199.464
232.0000	199.61
233.0000	200.907
234.0000	200.676
235.0000	198.008
236.0000	198.82
237.0000	200.146
238.0000	201.833
239.0000	202.871
240.0000	202.363
241.0000	199.414
242.0000	198.229
243.0000	200.292
244.0000	201.237
245.0000	201.628
246.0000	200.793
247.0000	201.006
248.0000	201.524
249.0000	203.028
250.0000	203.001
251.0000	203.084
252.0000	202.887
253.0000	203.821
254.0000	204.038
255.0000	203.744
256.0000	203.361
257.0000	202.698
258.0000	204.305
259.0000	202.361
260.0000	200.962
261.0000	202.257
262.0000	203.921
263.0000	203.964
264.0000	206.236
265.0000	205.646
266.0000	203.311
267.0000	205.888
268.0000	210.2
269.0000	210.526
270.0000	206.645
271.0000	205.027
272.0000	206.701
273.0000	207.451
274.0000	205.193
275.0000	207.055
276.0000	208.473
277.0000	207.108
278.0000	208.245
279.0000	208.992
280.0000	207.926
281.0000	207.503
282.0000	208.995
283.0000	210.004
284.0000	207.974
285.0000	206.469
286.0000	209.942
287.0000	211.761
288.0000	209.393
289.0000	210.314
290.0000	210.986
291.0000	210.093
292.0000	208.937
293.0000	208.078
294.0000	207.804
295.0000	209.418
296.0000	211.502
297.0000	209.555
298.0000	211.68
299.0000	214.553
300.0000	212.825
301.0000	211.325
302.0000	210.86
303.0000	211.991
304.0000	212.079
305.0000	211.154
306.0000	212.676
307.0000	212.771
308.0000	211.672
309.0000	215.115
310.0000	215.382
311.0000	213.727
312.0000	212.087
313.0000	212.338
314.0000	214.558
315.0000	215.041
316.0000	215.726
317.0000	214.068
318.0000	213.858
319.0000	213.558
320.0000	212.664
321.0000	214.523
322.0000	214.666
323.0000	215.493
324.0000	215.825
325.0000	214.96
326.0000	214.771
327.0000	214.39
328.0000	216.799
329.0000	217.085
330.0000	218.311
331.0000	218.451
332.0000	217.718
333.0000	217.899
334.0000	216.956
335.0000	214.747
336.0000	215.428
337.0000	216.247
338.0000	217.065
339.0000	218.202
340.0000	216.345
341.0000	218.937
342.0000	218.904
343.0000	217.456
344.0000	220.081
345.0000	221.505
346.0000	221.839
347.0000	219.958
348.0000	220.951
349.0000	221.159
350.0000	219.581
351.0000	221.014
352.0000	221.381
353.0000	219.79
354.0000	219.519
355.0000	221.47
356.0000	221.411
357.0000	221.911
358.0000	223.086
359.0000	221.203
360.0000	221.307
361.0000	222.361
362.0000	220.633
363.0000	222.323
364.0000	221.627
365.0000	220.519
366.0000	220.569
367.0000	222.43
368.0000	225.193
369.0000	224.245
370.0000	223.459
371.0000	222.535
372.0000	224.011
373.0000	224.814
374.0000	224.227
375.0000	223.606
376.0000	224.645
377.0000	226.202
378.0000	225.817
379.0000	222.77
380.0000	224.88
381.0000	226.013
382.0000	221.666
383.0000	224.071
384.0000	225.857
385.0000	224.976
386.0000	224.602
387.0000	225.637
388.0000	224.657
389.0000	220.979
390.0000	222.294
391.0000	225.238
392.0000	223.701
393.0000	222.992
394.0000	226.204
395.0000	227.506
396.0000	225.257
397.0000	226.73
398.0000	229.98
399.0000	231.675
400.0000	231.031
401.0000	228.189
402.0000	227.248
403.0000	225.118
404.0000	228.064
405.0000	230.257
406.0000	226.446
407.0000	227.543
408.0000	227.845
409.0000	226.991
410.0000	227.201
411.0000	226.961
412.0000	224.62
413.0000	223.887
414.0000	227.68
415.0000	226.46
416.0000	226.897
417.0000	230.156
418.0000	228.655
419.0000	228.208
420.0000	228.966
421.0000	230.686
422.0000	232.745
423.0000	229.343
424.0000	226.895
425.0000	230.009
426.0000	230.905
427.0000	227.504
428.0000	227.617
429.0000	229.383
430.0000	230.139
431.0000	231.32
432.0000	230.917
433.0000	230.952
434.0000	230.534
435.0000	232.548
436.0000	231.894
437.0000	228.335
438.0000	229.515
439.0000	231.275
440.0000	231.921
441.0000	233.471
442.0000	232.636
443.0000	230.028
444.0000	230.998
445.0000	231.425
446.0000	228.382
447.0000	228.127
448.0000	229.254
449.0000	228.601
450.0000	229.333
451.0000	230.259
452.0000	228.011
453.0000	229.093
454.0000	234.378
455.0000	233.101
456.0000	233.655
457.0000	233.798
458.0000	230.776
459.0000	231.636
460.0000	232.595
461.0000	234.388
462.0000	235.859
463.0000	234.356
464.0000	233.985
465.0000	233.473
466.0000	236.142
467.0000	238.611
468.0000	233.667
469.0000	232.39
470.0000	234.98
471.0000	235.318
472.0000	232.787
473.0000	232.419
474.0000	234.492
475.0000	235.684
476.0000	233.566
477.0000	232.98
478.0000	235.346
479.0000	234.309
480.0000	233.238
481.0000	234.281
482.0000	234.89
483.0000	235.017
484.0000	234.111
485.0000	234.783
486.0000	233.937
487.0000	234.957
488.0000	235.257
489.0000	233.157
490.0000	236.16
491.0000	236.979
492.0000	236.109
493.0000	235.981
494.0000	238.814
495.0000	241.712
496.0000	239.9
497.0000	235.336
498.0000	233.181
499.0000	235.721
500.0000	237.733
501.0000	237.869
502.0000	238.221
503.0000	237.783
504.0000	235.081
505.0000	234.707
506.0000	237.097
507.0000	236.839
508.0000	237.501
509.0000	238.216
510.0000	235.901
511.0000	235.808
512.0000	235.732
513.0000	235.036
514.0000	237.596
515.0000	238
516.0000	236.945
517.0000	237.348
518.0000	237.8
519.0000	240.374
520.0000	238.586
521.0000	234.758
522.0000	235.912
523.0000	238.734
524.0000	239.45
525.0000	239.057
526.0000	239.226
527.0000	237.94
528.0000	237.578
529.0000	238.297
530.0000	239.222
531.0000	239.039
532.0000	239.132
533.0000	241.559
534.0000	241.783
535.0000	239.028
536.0000	236.579
537.0000	237.611
538.0000	239.923
539.0000	239.932
540.0000	237.154
541.0000	238.543
542.0000	239.653
543.0000	236.274
544.0000	237.985
545.0000	239.607
546.0000	239.723
547.0000	244.555
548.0000	244.242
549.0000	240.681
550.0000	241.576
551.0000	241.072
552.0000	241.618
553.0000	242.3
554.0000	243.783
555.0000	243.067
556.0000	239.927
557.0000	242.036
558.0000	242.625
559.0000	241.423
560.0000	242.09
561.0000	241.406
562.0000	242.004
563.0000	242.26
564.0000	240.679
565.0000	243.657
566.0000	244.157
567.0000	241.577
568.0000	243.198
569.0000	243.929
570.0000	243.418
571.0000	243.174
572.0000	243.919
573.0000	244.689
574.0000	243.03
575.0000	241.587
576.0000	243.78
577.0000	244.56
578.0000	242.42
579.0000	240.905
580.0000	242.189
581.0000	242.363
582.0000	241.657
583.0000	242.999
584.0000	242.995
585.0000	244.322
586.0000	243.673
587.0000	243.262
588.0000	243.832
589.0000	244.627
590.0000	247.622
591.0000	246.759
592.0000	245.29
593.0000	242.358
594.0000	243.363
595.0000	247.76
596.0000	247.047
597.0000	244.116
598.0000	242.303
599.0000	244.543
600.0000	246.136
601.0000	245.83
602.0000	244.851
603.0000	245.237
604.0000	245.865
605.0000	243.279
606.0000	244.409
607.0000	245.643
608.0000	246.01
609.0000	245.416
610.0000	243.603
611.0000	244.079
612.0000	245.898
613.0000	249.102
614.0000	247.669
615.0000	247.692
616.0000	246.886
617.0000	246.635
618.0000	246.437
619.0000	244.951
620.0000	246.135
621.0000	244.693
622.0000	244.134
623.0000	244.788
624.0000	243.853
625.0000	245.619
626.0000	249.555
627.0000	248.549
628.0000	246.433
629.0000	245.538
630.0000	246.599
631.0000	247.969
632.0000	245.788
633.0000	247.183
634.0000	248.732
635.0000	246.312
636.0000	247.259
637.0000	250.496
638.0000	249.865
639.0000	248.148
640.0000	252.603
641.0000	251.608
642.0000	246.461
643.0000	247.033
644.0000	246.509
645.0000	246.514
646.0000	246.368
647.0000	247.037
648.0000	250.282
649.0000	249.966
650.0000	247.639
651.0000	248.214
652.0000	249.923
653.0000	252.07
654.0000	252.649
655.0000	249.907
656.0000	248.917
657.0000	248.405
658.0000	248.925
659.0000	249.809
660.0000	250.827
661.0000	251.97
662.0000	248.914
663.0000	249.067
664.0000	254.272
665.0000	251.719
666.0000	246.221
667.0000	246.361
668.0000	249.373
669.0000	250.481
670.0000	249.391
671.0000	251.715
672.0000	250.823
673.0000	250.529
674.0000	251.583
675.0000	250.964
676.0000	251.11
677.0000	252.42
678.0000	253.432
679.0000	251.782
680.0000	253.959
681.0000	253.783
682.0000	252.764
683.0000	252.622
684.0000	251.029
685.0000	251.975
686.0000	253.749
687.0000	253.196
688.0000	252.849
689.0000	255.36
690.0000	254.59
691.0000	252.994
692.0000	251.392
693.0000	247.58
694.0000	248.082
695.0000	251.255
696.0000	252.869
697.0000	252.004
698.0000	253.994
699.0000	256.501
700.0000	255.473
701.0000	254.733
702.0000	254.452
703.0000	253.665
704.0000	252.985
705.0000	250.841
706.0000	249.306
707.0000	252.99
708.0000	255.542
709.0000	253.188
710.0000	253.361
711.0000	255.186
712.0000	256.245
713.0000	256.936
714.0000	253.356
715.0000	255.555
716.0000	255.765
717.0000	255.005
718.0000	254.628
719.0000	255.45
720.0000	256.958
721.0000	252.168
722.0000	255.519
723.0000	260.22
724.0000	257.296
725.0000	253.908
726.0000	256.416
727.0000	258.584
728.0000	257.342
729.0000	257.89
730.0000	257.022
731.0000	255.024
732.0000	253.255
733.0000	252.289
734.0000	252.159
735.0000	252.657
736.0000	253.909
737.0000	252.627
738.0000	254.142
739.0000	254.444
740.0000	251.363
741.0000	253.551
742.0000	258.135
743.0000	256.642
744.0000	255.646
745.0000	259.52
746.0000	259.724
747.0000	257.823
748.0000	257.735
749.0000	257.608
750.0000	258.635
751.0000	259.331
752.0000	258.118
753.0000	257.6
754.0000	259.506
755.0000	259.91
756.0000	259.273
757.0000	261.47
758.0000	258.597
759.0000	254.3
760.0000	256.962
761.0000	257.64
762.0000	256.404
763.0000	257.94
764.0000	255.168
765.0000	254.092
766.0000	255.731
767.0000	256.912
768.0000	258.993
769.0000	258.343
770.0000	257.006
771.0000	257.322
772.0000	259.079
773.0000	261.323
774.0000	262.657
775.0000	263.846
776.0000	262.248
777.0000	258.856
778.0000	259.955
779.0000	262.459
780.0000	259.84
781.0000	257.033
782.0000	260.17
783.0000	263.011
784.0000	262.64
785.0000	264.008
786.0000	262.23
787.0000	258.289
788.0000	260.748
789.0000	263.519
790.0000	261.801
791.0000	263.124
792.0000	264.006
793.0000	262.848
794.0000	259.958
795.0000	261.068
796.0000	265.865
797.0000	263.101
798.0000	259.553
799.0000	260.592
800.0000	262.136
801.0000	264.385
802.0000	262.912
803.0000	260.235
804.0000	263.444
805.0000	265.585
806.0000	263.424
807.0000	262.832
808.0000	262.803
809.0000	262.077
810.0000	261.744
811.0000	261.565
812.0000	260.988
813.0000	259.143
814.0000	259.557
815.0000	260.39
816.0000	261.187
817.0000	260.984
818.0000	262.982
819.0000	261.222
820.0000	259.62
821.0000	261.419
822.0000	263.811
823.0000	266.15
824.0000	260.97
825.0000	260.262
826.0000	263.487
827.0000	265.049
828.0000	268.403
829.0000	267.688
830.0000	265.584
831.0000	265.188
832.0000	263.433
833.0000	262.973
834.0000	263.492
835.0000	266.537
836.0000	268.072
837.0000	264.893
838.0000	265.679
839.0000	266.543
840.0000	265.816
841.0000	266.712
842.0000	263.893
843.0000	260.992
844.0000	262.458
845.0000	264.176
846.0000	264.075
847.0000	261.331
848.0000	261.812
849.0000	264.229
850.0000	264.521
851.0000	265.996
852.0000	262.459
853.0000	261.329
854.0000	263.468
855.0000	262.951
856.0000	263.663
857.0000	263.677
858.0000	264.972
859.0000	264.684
860.0000	266.354
861.0000	268.562
862.0000	267.282
863.0000	264.628
864.0000	264.465
865.0000	264.87
866.0000	263.954
867.0000	264.063
868.0000	260.504
869.0000	263.141
870.0000	265.533
871.0000	262.92
872.0000	262.817
873.0000	263.351
874.0000	265.752
875.0000	266.828
876.0000	265.698
877.0000	269.465
878.0000	270.83
879.0000	267.48
880.0000	269.4
881.0000	270.87
882.0000	268.471
883.0000	268.473
884.0000	271.457
885.0000	270.477
886.0000	265.536
887.0000	263.733
888.0000	267.012
889.0000	267.851
890.0000	266.65
891.0000	268.868
892.0000	272.234
893.0000	269.177
894.0000	265.374
895.0000	268.786
896.0000	273.405
897.0000	271.296
898.0000	266.154
899.0000	265.014
900.0000	266.406
901.0000	265.701
902.0000	265.413
903.0000	269.679
904.0000	269.594
905.0000	269.143
906.0000	269.098
907.0000	267.202
908.0000	267.947
909.0000	268.37
910.0000	270.507
911.0000	271.735
912.0000	270.459
913.0000	270.755
914.0000	271.418
915.0000	270.208
916.0000	267.987
917.0000	266.657
918.0000	269.998
919.0000	272.735
920.0000	269.426
921.0000	267.504
922.0000	266.519
923.0000	265.884
924.0000	268.672
925.0000	267.532
926.0000	267.441
927.0000	269.254
928.0000	271.012
929.0000	269.271
930.0000	268.995
931.0000	272.654
932.0000	268.828
933.0000	269.489
934.0000	272.926
935.0000	272.458
936.0000	271.166
937.0000	271.118
938.0000	269.135
939.0000	267.95
940.0000	270.191
941.0000	269.354
942.0000	270.114
943.0000	271.309
944.0000	270.823
945.0000	271.343
946.0000	270.753
947.0000	272.355
948.0000	271.209
949.0000	270.945
950.0000	273.467
951.0000	272.226
952.0000	272.161
953.0000	272.181
954.0000	271.772
955.0000	271.907
956.0000	272.045
957.0000	270.356
958.0000	271.076
959.0000	272.052
960.0000	270.163
961.0000	272.047
962.0000	272.416
963.0000	267.395
964.0000	266.315
965.0000	268.044
966.0000	270.724
967.0000	270.841
968.0000	270.549
969.0000	272.373
970.0000	271.18
971.0000	272.953
972.0000	274.522
973.0000	274.273
974.0000	275.13
975.0000	272.248
976.0000	274.084
977.0000	275.653
978.0000	273.527
979.0000	272.383
980.0000	271.098
981.0000	273.807
982.0000	275.579
983.0000	275.035
984.0000	273.341
985.0000	272.428
986.0000	274.142
987.0000	274.425
988.0000	272.986
989.0000	270.041
990.0000	268.571
991.0000	269.939
992.0000	272.022
993.0000	271.981
994.0000	271.596
995.0000	272.611
996.0000	272.339
997.0000	275.561
998.0000	277.265
999.0000	275.943
1000.0000	273.983
1001.0000	273.114
1002.0000	273.032
1003.0000	272.086
1004.0000	270.365
1005.0000	273.766
1006.0000	276.243
1007.0000	275.359
1008.0000	276.146
1009.0000	275.833
1010.0000	274.188
1011.0000	273.524
1012.0000	274.046
1013.0000	274.083
1014.0000	277.368
1015.0000	275.888
1016.0000	275.224
1017.0000	275.657
1018.0000	273.116
1019.0000	274.114
1020.0000	274.084
1021.0000	274.737
1022.0000	275.754
1023.0000	274.908
1024.0000	278.863
1025.0000	277.744
1026.0000	275.079
1027.0000	277.91
1028.0000	278.167
1029.0000	278.462
1030.0000	276.717
1031.0000	274.421
1032.0000	274.185
1033.0000	277.429
1034.0000	277.639
1035.0000	274.6
1036.0000	276.008
1037.0000	277.452
1038.0000	278.536
1039.0000	278.665
1040.0000	277.292
1041.0000	277.348
1042.0000	278.114
1043.0000	277.701
1044.0000	277.904
1045.0000	276.769
1046.0000	274.666
1047.0000	274.411
1048.0000	275.428
1049.0000	278.026
1050.0000	279.226
1051.0000	278.87
1052.0000	280.163
1053.0000	280.881
1054.0000	278.329
1055.0000	278.515
1056.0000	279.109
1057.0000	279.443
1058.0000	277.539
1059.0000	275.321
1060.0000	277.35
1061.0000	276.238
1062.0000	277.388
1063.0000	276.234
1064.0000	278.944
1065.0000	280.202
1066.0000	275.905
1067.0000	277.668
1068.0000	278.728
1069.0000	279.213
1070.0000	280.455
1071.0000	279.939
1072.0000	277.807
1073.0000	280.553
1074.0000	277.886
1075.0000	275.63
1076.0000	275.241
1077.0000	276.186
1078.0000	282.26
1079.0000	280.49
1080.0000	280.483
1081.0000	282.951
1082.0000	280.815
1083.0000	281.557
1084.0000	280.831
1085.0000	279.611
1086.0000	280.956
1087.0000	280.125
1088.0000	278.839
1089.0000	278.046
1090.0000	279.221
1091.0000	278.751
1092.0000	277.419
1093.0000	277.93
1094.0000	276.955
1095.0000	277.404
1096.0000	279.032
1097.0000	277.02
1098.0000	275.257
1099.0000	278.77
1100.0000	279.789
1101.0000	275.458
1102.0000	276.887
1103.0000	279.254
1104.0000	280.846
1105.0000	281.321
1106.0000	280.757
1107.0000	280.807
1108.0000	279.097
1109.0000	281.872
1110.0000	281.512
1111.0000	279.937
1112.0000	279.075
1113.0000	280.621
1114.0000	281.364
1115.0000	279.464
1116.0000	281.368
1117.0000	280.894
1118.0000	278.108
1119.0000	276.188
1120.0000	280.009
1121.0000	282.895
1122.0000	280.554
1123.0000	282.727
1124.0000	283.724
1125.0000	282.148
1126.0000	283.262
1127.0000	281.936
1128.0000	281.029
1129.0000	279.716
1130.0000	277.074
1131.0000	280.191
1132.0000	283.824
1133.0000	283.178
1134.0000	283.646
1135.0000	282.195
1136.0000	281.534
1137.0000	281.17
1138.0000	279.385
1139.0000	282.12
1140.0000	284.046
1141.0000	285.397
1142.0000	283.139
1143.0000	280.402
1144.0000	281.773
1145.0000	280.789
1146.0000	280.486
1147.0000	281.491
1148.0000	279.362
1149.0000	280.28
1150.0000	280.458
1151.0000	280.545
1152.0000	283.143
1153.0000	281.702
1154.0000	283.328
1155.0000	283.284
1156.0000	281.625
1157.0000	284.495
1158.0000	282.702
1159.0000	279.494
1160.0000	279.462
1161.0000	279.499
1162.0000	283.823
1163.0000	285.806
1164.0000	285.097
1165.0000	284.502
1166.0000	282.306
1167.0000	280.158
1168.0000	279.472
1169.0000	283.692
1170.0000	282.702
1171.0000	282.185
1172.0000	284.464
1173.0000	283.761
1174.0000	284.372
1175.0000	285.07
1176.0000	284.347
1177.0000	283.421
1178.0000	284.181
1179.0000	283.613
1180.0000	283.98
1181.0000	283.141
1182.0000	283.249
1183.0000	283.132
1184.0000	281.332
1185.0000	283.428
1186.0000	285.84
1187.0000	282.123
1188.0000	281.506
1189.0000	284.694
1190.0000	286.088
1191.0000	286.9
1192.0000	286.39
1193.0000	284.721
1194.0000	285.903
1195.0000	288.005
1196.0000	286.843
1197.0000	285.702
1198.0000	285.336
1199.0000	286.322
1200.0000	286.75
1201.0000	284.717
1202.0000	281.369
1203.0000	281.767
1204.0000	283.661
1205.0000	287.121
1206.0000	287.783
1207.0000	285.038
1208.0000	284.972
1209.0000	285.995
1210.0000	283.307
1211.0000	282.233
1212.0000	285.666
1213.0000	286.39
1214.0000	286.138
1215.0000	284.081
1216.0000	283.666
1217.0000	286.009
1218.0000	283.022
1219.0000	282.799
1220.0000	284.132
1221.0000	284.141
1222.0000	287.234
1223.0000	288.412
1224.0000	288.55
1225.0000	289.888
1226.0000	288.927
1227.0000	287.648
1228.0000	287.671
1229.0000	286.365
1230.0000	287.44
1231.0000	289.028
1232.0000	288.353
1233.0000	285.999
1234.0000	285.203
1235.0000	288.17
1236.0000	288.182
1237.0000	283.856
1238.0000	283.282
1239.0000	287.087
1240.0000	288.988
1241.0000	290.624
1242.0000	289.608
1243.0000	288.29
1244.0000	290.484
1245.0000	292.117
1246.0000	289.029
1247.0000	287.574
1248.0000	289.707
1249.0000	289.9
1250.0000	287.678
1251.0000	284.865
1252.0000	287.683
1253.0000	289.086
1254.0000	288.208
1255.0000	289.237
1256.0000	287.697
1257.0000	286.186
1258.0000	287.534
1259.0000	288.634
1260.0000	287.437
1261.0000	285.687
1262.0000	285.83
1263.0000	285.936
1264.0000	286.869
1265.0000	288.535
1266.0000	288.874
1267.0000	288.268
1268.0000	287.185
1269.0000	286.903
1270.0000	285.82
1271.0000	287.349
1272.0000	291.157
1273.0000	292.66
1274.0000	291.643
1275.0000	291.229
1276.0000	289.41
1277.0000	288.214
1278.0000	290.089
1279.0000	290.102
1280.0000	289.914
1281.0000	291.538
1282.0000	289.014
1283.0000	286.44
1284.0000	289.508
1285.0000	289.532
1286.0000	287.627
1287.0000	290.138
1288.0000	293.188
1289.0000	291.52
1290.0000	289.887
1291.0000	290.34
1292.0000	291.478
1293.0000	291.042
1294.0000	291.894
1295.0000	294.374
1296.0000	295.26
1297.0000	294.748
1298.0000	293.123
1299.0000	293.228
1300.0000	294.212
1301.0000	291.894
1302.0000	291.349
1303.0000	293.136
1304.0000	293.959
1305.0000	290.573
1306.0000	289.95
1307.0000	292.96
1308.0000	292.4
1309.0000	292.725
1310.0000	289.106
1311.0000	289.089
1312.0000	290.766
1313.0000	289.26
1314.0000	290.373
1315.0000	290.317
1316.0000	289.62
1317.0000	290.73
1318.0000	288.712
1319.0000	288.861
1320.0000	293.967
1321.0000	294.799
1322.0000	291.469
1323.0000	290.941
1324.0000	294.27
1325.0000	293.914
1326.0000	290.747
1327.0000	291.622
1328.0000	294.415
1329.0000	289.989
1330.0000	289.662
1331.0000	291.556
1332.0000	290.551
1333.0000	291.176
1334.0000	292.283
1335.0000	293.839
1336.0000	292.212
1337.0000	291.812
1338.0000	292.086
1339.0000	291.192
1340.0000	289.939
1341.0000	290.306
1342.0000	293.493
1343.0000	297.297
1344.0000	293.906
1345.0000	290.522
1346.0000	293.706
1347.0000	291.293
1348.0000	289.369
1349.0000	292.402
1350.0000	291.814
1351.0000	293.235
1352.0000	292.849
1353.0000	291.885
1354.0000	296.392
1355.0000	294.914
1356.0000	293.854
1357.0000	297.066
1358.0000	296.313
1359.0000	295.045
1360.0000	295.14
1361.0000	292.82
1362.0000	295.123
1363.0000	299.547
1364.0000	296.482
1365.0000	297.035
1366.0000	295.834
1367.0000	293.478
1368.0000	294.26
1369.0000	291.694
1370.0000	295.514
1371.0000	295.664
1372.0000	291.96
1373.0000	294.395
1374.0000	295.053
1375.0000	295.793
1376.0000	297.759
1377.0000	294.957
1378.0000	293.546
1379.0000	297.634
1380.0000	295.616
1381.0000	291.877
1382.0000	290.607
1383.0000	290.277
1384.0000	294.13
1385.0000	293.577
1386.0000	295.984
1387.0000	298.03
1388.0000	294.243
1389.0000	293.066
1390.0000	291.625
1391.0000	291.01
1392.0000	292.798
1393.0000	294.392
1394.0000	295.772
1395.0000	295.622
1396.0000	295.79
1397.0000	297.36
1398.0000	295.776
1399.0000	296.342
1400.0000	296.919
1401.0000	295.558
1402.0000	295.404
1403.0000	297.361
1404.0000	297.566
1405.0000	294.826
1406.0000	296.775
1407.0000	299.487
1408.0000	299.218
1409.0000	298.806
1410.0000	298.439
1411.0000	297.237
1412.0000	296.705
1413.0000	296.005
1414.0000	293.609
1415.0000	294.143
1416.0000	295.188
1417.0000	295.61
1418.0000	297.716
1419.0000	298.373
1420.0000	298.09
1421.0000	296.088
1422.0000	296.557
1423.0000	296.326
1424.0000	295.777
1425.0000	296.176
1426.0000	295.739
1427.0000	294.559
1428.0000	293.024
1429.0000	294.999
1430.0000	296.461
1431.0000	298.727
1432.0000	299.235
1433.0000	296.992
1434.0000	295.552
1435.0000	298.676
1436.0000	297.375
1437.0000	295.544
1438.0000	296.645
1439.0000	297.122
1440.0000	299.453
1441.0000	296.292
1442.0000	294.122
1443.0000	295.463
1444.0000	296.512
1445.0000	295.633
1446.0000	298.432
1447.0000	300.191
1448.0000	297.116
1449.0000	296.698
1450.0000	298.411
1451.0000	302.03
1452.0000	304.024
1453.0000	301.026
1454.0000	298.511
1455.0000	296.636
1456.0000	296.955
1457.0000	296.63
1458.0000	295.144
1459.0000	298.054
1460.0000	300.299
1461.0000	300.062
1462.0000	301.612
1463.0000	302.516
1464.0000	299.34
1465.0000	296.904
1466.0000	298.945
1467.0000	298.493
1468.0000	297.866
1469.0000	301.282
1470.0000	302.277
1471.0000	299.992
1472.0000	299.887
1473.0000	300.003
1474.0000	298.834
1475.0000	297.633
1476.0000	296.289
1477.0000	297.314
1478.0000	299.224
1479.0000	300.395
1480.0000	301.907
1481.0000	301.262
1482.0000	299.94
1483.0000	298.686
1484.0000	297.27
1485.0000	300.845
1486.0000	301.342
1487.0000	301.589
1488.0000	301.246
1489.0000	299.626
1490.0000	297.443
1491.0000	298.478
1492.0000	298.001
1493.0000	297.687
1494.0000	298.97
1495.0000	296.573
1496.0000	300.123
1497.0000	299.61
1498.0000	299.086
1499.0000	299.498
1500.0000	298.78
1501.0000	298.687
1502.0000	297.21
1503.0000	298.257
1504.0000	297.994
1505.0000	300.296
1506.0000	301.864
1507.0000	300.1
1508.0000	302.583
1509.0000	301.723
1510.0000	299.459
1511.0000	302.984
1512.0000	302.463
1513.0000	300.772
1514.0000	299.509
1515.0000	299.168
1516.0000	302.64
1517.0000	302.173
1518.0000	302.419
1519.0000	302.052
1520.0000	300.188
1521.0000	302.122
1522.0000	301.71
1523.0000	300.387
1524.0000	302.67
1525.0000	303.35
1526.0000	302.17
1527.0000	302.801
1528.0000	303.231
1529.0000	299.823
1530.0000	299.011
1531.0000	298.123
1532.0000	296.105
1533.0000	298.658
1534.0000	299.687
1535.0000	300.925
1536.0000	302.902
1537.0000	302.983
1538.0000	300.203
1539.0000	301.558
1540.0000	304.115
1541.0000	302.17
1542.0000	301.148
1543.0000	300.416
1544.0000	300.182
1545.0000	305.175
1546.0000	306.636
1547.0000	300.009
1548.0000	297.453
1549.0000	298.085
1550.0000	301.191
1551.0000	303.792
1552.0000	303.197
1553.0000	303.152
1554.0000	303.051
1555.0000	303.118
1556.0000	300.862
1557.0000	301.157
1558.0000	301.945
1559.0000	300.527
1560.0000	301.361
1561.0000	300.691
1562.0000	299.72
1563.0000	299.923
1564.0000	303.034
1565.0000	303.958
1566.0000	302.275
1567.0000	302.052
1568.0000	301.022
1569.0000	301.109
1570.0000	299.078
1571.0000	297.355
1572.0000	297.557
1573.0000	297.877
1574.0000	302.608
1575.0000	303.836
1576.0000	300.673
1577.0000	301.296
1578.0000	303.126
1579.0000	302.206
1580.0000	300.415
1581.0000	302.437
1582.0000	305.278
1583.0000	304.906
1584.0000	301.913
1585.0000	302.115
1586.0000	300.762
1587.0000	299.273
1588.0000	301.274
1589.0000	300.39
1590.0000	299.637
1591.0000	300.834
1592.0000	301.711
1593.0000	298.965
1594.0000	297.951
1595.0000	301.82
1596.0000	304.547
1597.0000	301.714
1598.0000	301.796
1599.0000	304.293
1600.0000	303.782
1601.0000	305.354
1602.0000	304.397
1603.0000	302.738
1604.0000	304.817
1605.0000	304.616
1606.0000	301.972
1607.0000	301.784
1608.0000	300.881
1609.0000	301.841
1610.0000	303.993
1611.0000	303.313
1612.0000	303.64
1613.0000	302.398
1614.0000	302.965
1615.0000	302.346
1616.0000	299.797
1617.0000	302.643
1618.0000	303.74
1619.0000	303.863
1620.0000	303.378
1621.0000	300.374
1622.0000	299.449
1623.0000	302.301
1624.0000	303.159
1625.0000	299.762
1626.0000	301.141
1627.0000	302.185
1628.0000	301.176
1629.0000	303.622
1630.0000	304.633
1631.0000	301.541
1632.0000	300.297
1633.0000	300.108
1634.0000	301.775
1635.0000	303.115
1636.0000	300.281
1637.0000	302.612
1638.0000	301.924
1639.0000	300.525
1640.0000	301.32
1641.0000	299.948
1642.0000	300.412
1643.0000	299.037
1644.0000	296.989
1645.0000	303.271
1646.0000	307.349
1647.0000	303.777
1648.0000	302.036
1649.0000	302.63
1650.0000	301.485
1651.0000	297.736
1652.0000	297.914
1653.0000	299.341
1654.0000	303.089
1655.0000	304.725
1656.0000	302.653
1657.0000	301.965
1658.0000	301.438
1659.0000	302.458
1660.0000	302.007
1661.0000	301.257
1662.0000	301.608
1663.0000	300.709
1664.0000	300.432
1665.0000	300.579
1666.0000	300.323
1667.0000	302.204
1668.0000	303.943
1669.0000	302.465
1670.0000	304.421
1671.0000	305.172
1672.0000	301.39
1673.0000	300.466
1674.0000	299.446
1675.0000	300.98
1676.0000	301.133
1677.0000	300.606
1678.0000	302.798
1679.0000	306.147
1680.0000	306.216
1681.0000	303.088
1682.0000	301.13
1683.0000	301.745
1684.0000	304.95
1685.0000	302.469
1686.0000	302.192
1687.0000	303.294
1688.0000	303.121
1689.0000	303.016
1690.0000	302.585
1691.0000	301.756
1692.0000	303.643
1693.0000	306.496
1694.0000	303.173
1695.0000	300.495
1696.0000	301.263
1697.0000	297.571
1698.0000	296.721
1699.0000	303.253
1700.0000	304.647
1701.0000	304.519
1702.0000	304.284
1703.0000	301.83
1704.0000	303.1
1705.0000	302.685
1706.0000	301.72
1707.0000	303.109
1708.0000	301.525
1709.0000	303.076
1710.0000	308.294
1711.0000	308.501
1712.0000	308.282
1713.0000	306.375
1714.0000	302.801
1715.0000	301.108
1716.0000	300.352
1717.0000	301.349
1718.0000	300.718
1719.0000	302.562
1720.0000	302.892
1721.0000	303.096
1722.0000	304.514
1723.0000	302.021
1724.0000	299.844
1725.0000	301.075
1726.0000	304.418
1727.0000	305.016
1728.0000	305.232
1729.0000	304.648
1730.0000	301.963
1731.0000	302.225
1732.0000	305.232
1733.0000	307.374
1734.0000	303.278
1735.0000	301.152
1736.0000	301.928
1737.0000	301.488
1738.0000	305.094
1739.0000	304.787
1740.0000	302.127
1741.0000	302.228
1742.0000	300.783
1743.0000	301.163
1744.0000	302.34
1745.0000	302.695
1746.0000	302.611
1747.0000	301.845
1748.0000	301.769
1749.0000	302.41
1750.0000	302.821
1751.0000	301.136
1752.0000	301.346
1753.0000	303.998
1754.0000	303.689
1755.0000	304.473
1756.0000	305.122
1757.0000	302.549
1758.0000	301.1
1759.0000	301.169
1760.0000	302.42
1761.0000	304.799
1762.0000	305.344
1763.0000	302.242
1764.0000	301.972
1765.0000	302.829
1766.0000	300.854
1767.0000	298.848
1768.0000	300.297
1769.0000	304.016
1770.0000	304.178
1771.0000	302.335
1772.0000	303.159
1773.0000	303.149
1774.0000	301.114
1775.0000	300.245
1776.0000	302.688
1777.0000	302.604
1778.0000	301.757
1779.0000	303.346
1780.0000	303.11
1781.0000	301.72
1782.0000	302.763
1783.0000	304.359
1784.0000	304.096
1785.0000	304.288
1786.0000	302.301
1787.0000	304.167
1788.0000	302.867
1789.0000	301.64
1790.0000	302.024
1791.0000	302.919
1792.0000	308.53
1793.0000	307.45
1794.0000	306.841
1795.0000	307.792
1796.0000	306.918
1797.0000	303.538
1798.0000	299.5
1799.0000	300.455
1800.0000	301.024
1801.0000	299.939
1802.0000	302.575
1803.0000	303.358
1804.0000	304.095
1805.0000	300.703
1806.0000	301.294
1807.0000	306.439
1808.0000	302.994
1809.0000	304.415
1810.0000	303.771
1811.0000	303.006
1812.0000	301.999
1813.0000	301.272
1814.0000	303.66
1815.0000	301.6
1816.0000	302.126
1817.0000	303.417
1818.0000	304.644
1819.0000	307.231
1820.0000	303.253
1821.0000	302.336
1822.0000	305.166
1823.0000	304.354
1824.0000	303.939
1825.0000	303.374
1826.0000	304.719
1827.0000	305.341
1828.0000	306.52
1829.0000	309.007
1830.0000	308.631
1831.0000	308.045
1832.0000	303.932
1833.0000	304.484
1834.0000	307.901
1835.0000	304.749
1836.0000	302.276
1837.0000	304.389
1838.0000	306.196
1839.0000	303.861
1840.0000	301.973
1841.0000	300.464
1842.0000	299.49
1843.0000	303.832
1844.0000	306.26
1845.0000	305.462
1846.0000	306.096
1847.0000	304.685
1848.0000	306.658
1849.0000	307.464
1850.0000	305.621
1851.0000	302.968
1852.0000	302.352
1853.0000	304.417
1854.0000	301.905
1855.0000	303.299
1856.0000	307.332
1857.0000	304.924
1858.0000	304.109
1859.0000	305.996
1860.0000	305.751
1861.0000	303.457
1862.0000	303.935
1863.0000	305.978
1864.0000	304.392
1865.0000	301.621
1866.0000	300.17
1867.0000	302.121
1868.0000	304.842
1869.0000	307.947
1870.0000	306.71
1871.0000	302.035
1872.0000	301.396
1873.0000	304.195
1874.0000	304.162
1875.0000	304.043
1876.0000	310.269
1877.0000	310.104
1878.0000	304.504
1879.0000	303.515
1880.0000	303.902
1881.0000	303.269
1882.0000	302.919
1883.0000	305.705
1884.0000	305.476
1885.0000	303.059
1886.0000	300.139
1887.0000	299.075
1888.0000	302.704
1889.0000	303.89
1890.0000	303.107
1891.0000	303.607
1892.0000	306.322
1893.0000	303.952
1894.0000	301.64
1895.0000	304.301
1896.0000	305.096
1897.0000	303.272
1898.0000	307.086
1899.0000	307.945
1900.0000	305.475
1901.0000	307.114
1902.0000	307.534
1903.0000	307.961
1904.0000	306.569
1905.0000	303.859
1906.0000	302.451
1907.0000	304.237
1908.0000	304.885
1909.0000	302.729
1910.0000	303.529
1911.0000	305.947
1912.0000	305.388
1913.0000	303.895
1914.0000	305.749
1915.0000	305.426
1916.0000	303.433
1917.0000	304.49
1918.0000	304.265
1919.0000	302.488
1920.0000	301.188
1921.0000	301.234
1922.0000	300.613
1923.0000	302.036
1924.0000	302.061
1925.0000	301.944
1926.0000	302.479
1927.0000	304.155
1928.0000	306.162
1929.0000	306.065
1930.0000	307.115
1931.0000	305.15
1932.0000	302.531
1933.0000	304.894
1934.0000	306.841
1935.0000	307.381
1936.0000	305.041
1937.0000	304.626
1938.0000	307.967
1939.0000	304.459
1940.0000	304.799
1941.0000	308.049
1942.0000	307.631
1943.0000	306.056
1944.0000	302.973
1945.0000	300.83
1946.0000	301.844
1947.0000	303.588
1948.0000	304.424
1949.0000	307.561
1950.0000	306.229
1951.0000	305.397
1952.0000	308.855
1953.0000	307.283
1954.0000	304.756
1955.0000	303.889
1956.0000	303.434
1957.0000	302.693
1958.0000	303.976
1959.0000	305.262
1960.0000	304.556
1961.0000	304.285
1962.0000	303.923
1963.0000	304.725
1964.0000	304.13
1965.0000	304.616
1966.0000	304.445
1967.0000	303.906
1968.0000	307.767
1969.0000	303.926
1970.0000	300.71
1971.0000	304.004
1972.0000	306.533
1973.0000	307.444
1974.0000	305.599
1975.0000	304.324
1976.0000	305.468
1977.0000	305.854
1978.0000	305.891
1979.0000	305.877
1980.0000	304.107
1981.0000	301.586
1982.0000	303.27
1983.0000	305.63
1984.0000	305.568
1985.0000	306.895
1986.0000	306.7
1987.0000	304.809
1988.0000	303.712
1989.0000	301.839
1990.0000	300.827
1991.0000	304.841
1992.0000	304.368
1993.0000	302.423
1994.0000	304.015
1995.0000	307.248
1996.0000	307.536
1997.0000	308.064
1998.0000	309.095
1999.0000	307.66
2000.0000	305.3
2001.0000	302.709
2002.0000	303.361
2003.0000	303.223
2004.0000	304.305
2005.0000	306.735
2006.0000	306.49
2007.0000	306.669
2008.0000	310.346
2009.0000	311.309
2010.0000	308.695
2011.0000	305.635
2012.0000	303.277
2013.0000	306.478
2014.0000	308.935
2015.0000	307.311
2016.0000	306.455
2017.0000	306.891
2018.0000	305.705
2019.0000	304.757
2020.0000	306.203
2021.0000	306.43
2022.0000	305.779
2023.0000	304.24
2024.0000	305.406
2025.0000	308.896
2026.0000	308.121
2027.0000	304.299
2028.0000	306.713
2029.0000	309.604
2030.0000	304.874
2031.0000	303.955
2032.0000	304.149
2033.0000	302.436
2034.0000	304.382
2035.0000	306.04
2036.0000	304.913
2037.0000	303.931
2038.0000	302.126
2039.0000	302.997
2040.0000	305.472
2041.0000	305.304
2042.0000	307.404
2043.0000	309.972
2044.0000	308.692
2045.0000	306.804
2046.0000	309.998
2047.0000	305.499
2048.0000	301.532
2049.0000	304.613
2050.0000	306.015
2051.0000	305.759
2052.0000	304.942
2053.0000	307.294
2054.0000	306.682
2055.0000	306.26
2056.0000	306.516
2057.0000	305.514
2058.0000	307.003
2059.0000	307.239
2060.0000	306.195
2061.0000	303.955
2062.0000	303.095
2063.0000	304.08
2064.0000	300.116
2065.0000	302.134
2066.0000	307.809
2067.0000	308.231
2068.0000	306.437
2069.0000	306.363
2070.0000	310.324
2071.0000	309.693
2072.0000	305.716
2073.0000	304.151
2074.0000	304.236
2075.0000	304.906
2076.0000	305.942
2077.0000	307.946
2078.0000	306.544
2079.0000	305.728
2080.0000	305.631
2081.0000	305.805
2082.0000	308.87
2083.0000	308.624
2084.0000	306.205
2085.0000	305.233
2086.0000	305.864
2087.0000	307.218
2088.0000	306.536
2089.0000	305.3
2090.0000	305.201
2091.0000	305.624
2092.0000	306.068
2093.0000	304.362
2094.0000	303.471
2095.0000	305.221
2096.0000	305.099
2097.0000	306.556
2098.0000	308.927
2099.0000	308.637
2100.0000	307.042
2101.0000	304.604
2102.0000	305.735
2103.0000	306.268
2104.0000	308.607
2105.0000	308.828
2106.0000	307.151
2107.0000	306.111
2108.0000	303.913
2109.0000	305.336
2110.0000	309.338
2111.0000	310.102
2112.0000	309.051
2113.0000	311.044
2114.0000	309.367
2115.0000	307.287
2116.0000	309.485
2117.0000	311.102
2118.0000	308.006
2119.0000	303.269
2120.0000	304.771
2121.0000	309.498
2122.0000	308.594
2123.0000	308.126
2124.0000	308.569
2125.0000	307.771
2126.0000	309.338
2127.0000	309.568
2128.0000	308.53
2129.0000	306.781
2130.0000	307.83
2131.0000	309.809
2132.0000	309.57
2133.0000	308.754
2134.0000	310.894
2135.0000	310.286
2136.0000	306.049
2137.0000	306.455
2138.0000	307.099
2139.0000	303.125
2140.0000	303.941
2141.0000	305.433
2142.0000	303.761
2143.0000	307.148
2144.0000	309.703
2145.0000	307.226
2146.0000	305.541
2147.0000	309.452
2148.0000	312.09
2149.0000	311.348
2150.0000	311.242
2151.0000	309.337
2152.0000	306.937
2153.0000	305.219
2154.0000	305.104
2155.0000	305.425
2156.0000	305.005
2157.0000	307.532
2158.0000	308.016
2159.0000	309.371
2160.0000	309.703
2161.0000	309.208
2162.0000	308.37
2163.0000	306.57
2164.0000	307.611
2165.0000	309.331
2166.0000	308.799
2167.0000	307.83
2168.0000	307.601
2169.0000	311.516
2170.0000	312.109
2171.0000	308.228
2172.0000	307.516
2173.0000	307.882
2174.0000	307.027
2175.0000	306.954
2176.0000	308.422
2177.0000	308.627
2178.0000	308.617
2179.0000	307.943
2180.0000	307.508
2181.0000	305.75
2182.0000	306.563
2183.0000	308.625
2184.0000	308.665
2185.0000	311.076
2186.0000	311.62
2187.0000	310.851
2188.0000	309.589
2189.0000	307.838
2190.0000	307.415
2191.0000	304.077
2192.0000	302.625
2193.0000	304.954
2194.0000	308.71
2195.0000	308.253
2196.0000	304.792
2197.0000	306.886
2198.0000	309.882
2199.0000	309.667
2200.0000	309.754
2201.0000	312.11
2202.0000	312.801
2203.0000	309.315
2204.0000	309.282
2205.0000	307.532
2206.0000	304.876
2207.0000	307.575
2208.0000	306.319
2209.0000	304.346
2210.0000	307.113
2211.0000	307.466
2212.0000	305.617
2213.0000	306.23
2214.0000	310.784
2215.0000	309.823
2216.0000	307.516
2217.0000	307.562
2218.0000	305.685
2219.0000	309.83
2220.0000	309.132
2221.0000	306.94
2222.0000	307.529
2223.0000	306.591
2224.0000	305.694
2225.0000	301.791
2226.0000	302.461
2227.0000	306.761
2228.0000	307.775
2229.0000	305.871
2230.0000	307.069
2231.0000	306.859
2232.0000	306.199
2233.0000	307.931
2234.0000	308.215
2235.0000	307.94
2236.0000	306.495
2237.0000	307.248
2238.0000	309.323
2239.0000	310.446
2240.0000	306.062
2241.0000	305.393
2242.0000	308.295
2243.0000	308.39
2244.0000	308.298
2245.0000	308.287
2246.0000	307.418
2247.0000	309.01
2248.0000	312.982
2249.0000	310.719
2250.0000	306.604
2251.0000	305.436
2252.0000	308.174
2253.0000	310.713
2254.0000	309.54
2255.0000	309.74
2256.0000	311.897
2257.0000	309.212
2258.0000	305.691
2259.0000	306.432
2260.0000	307.78
2261.0000	310.423
2262.0000	313.239
2263.0000	312.556
2264.0000	310.916
2265.0000	309.731
2266.0000	310.273
2267.0000	310.664
2268.0000	309.295
2269.0000	309.528
2270.0000	309.633
2271.0000	307.549
2272.0000	305.637
2273.0000	306.693
2274.0000	307.926
2275.0000	311.641
2276.0000	314.233
2277.0000	310.477
2278.0000	310.096
2279.0000	312.804
2280.0000	312.127
2281.0000	310.392
2282.0000	310.561
2283.0000	307.797
2284.0000	305.813
2285.0000	309.676
2286.0000	311.471
2287.0000	309.064
2288.0000	308.272
2289.0000	308.689
2290.0000	312.486
2291.0000	313.064
2292.0000	310.904
2293.0000	311.933
2294.0000	309.946
2295.0000	312.426
2296.0000	312.538
2297.0000	311.201
2298.0000	312.503
2299.0000	310.219
2300.0000	307.825
2301.0000	312.01
2302.0000	315.924
2303.0000	314.906
2304.0000	312.31
2305.0000	311.816
2306.0000	313.59
2307.0000	309.654
2308.0000	309.993
2309.0000	313.56
2310.0000	311.519
2311.0000	307.452
2312.0000	309.515
2313.0000	311.672
2314.0000	307.616
2315.0000	308.81
2316.0000	313.432
2317.0000	315.005
2318.0000	312.537
2319.0000	311.745
2320.0000	311.894
2321.0000	308.02
2322.0000	307.82
2323.0000	310.063
2324.0000	311.129
2325.0000	310.959
2326.0000	309.501
2327.0000	311.519
2328.0000	314.065
2329.0000	315.062
2330.0000	310.149
2331.0000	309.829
2332.0000	313.18
2333.0000	310.163
2334.0000	313.249
2335.0000	316.187
2336.0000	314.045
2337.0000	311.461
2338.0000	312.441
2339.0000	310.653
2340.0000	308.808
2341.0000	311.251
2342.0000	311.704
2343.0000	311.208
2344.0000	308.87
2345.0000	310.693
2346.0000	314.323
2347.0000	311.833
2348.0000	308.766
2349.0000	308.919
2350.0000	309.801
2351.0000	309.792
2352.0000	308.704
2353.0000	308.917
2354.0000	311.333
2355.0000	310.928
2356.0000	309.254
2357.0000	309.676
2358.0000	309.802
2359.0000	308.441
2360.0000	311.223
2361.0000	312.99
2362.0000	310.738
2363.0000	311.936
2364.0000	310.927
2365.0000	310.572
2366.0000	313.688
2367.0000	312.125
2368.0000	309.342
2369.0000	310.125
2370.0000	312.836
2371.0000	314.901
2372.0000	311.009
2373.0000	310.521
2374.0000	310.598
2375.0000	308.5
2376.0000	308.217
2377.0000	307.357
2378.0000	307.594
2379.0000	308.538
2380.0000	310.925
2381.0000	311.942
2382.0000	309.537
2383.0000	312.213
2384.0000	314.197
2385.0000	309.172
2386.0000	310.586
2387.0000	312.161
2388.0000	311.001
2389.0000	312.205
2390.0000	312.21
2391.0000	307.697
2392.0000	306.642
2393.0000	309.817
2394.0000	311.567
2395.0000	311.77
2396.0000	308.613
2397.0000	309.965
2398.0000	310.844
2399.0000	309.71
2400.0000	309.771
2401.0000	310.776
2402.0000	310.168
2403.0000	309.362
2404.0000	312.518
2405.0000	311.059
2406.0000	309.58
2407.0000	309.77
2408.0000	308.008
2409.0000	309.967
2410.0000	312.858
2411.0000	311.362
2412.0000	313.468
2413.0000	315.322
2414.0000	310.306
2415.0000	310.427
2416.0000	314.048
2417.0000	311.991
2418.0000	308.272
2419.0000	307.35
2420.0000	310.917
2421.0000	313.142
2422.0000	311.703
2423.0000	311.56
2424.0000	310.861
2425.0000	309.144
2426.0000	308.838
2427.0000	309.307
2428.0000	309.786
2429.0000	311.282
2430.0000	313.23
2431.0000	314.433
2432.0000	314.596
2433.0000	313.507
2434.0000	310.296
2435.0000	310.657
2436.0000	313.326
2437.0000	313.586
2438.0000	313.908
2439.0000	310.719
2440.0000	308.906
2441.0000	308.365
2442.0000	309.355
2443.0000	309.443
2444.0000	308.774
2445.0000	309.851
2446.0000	310.636
2447.0000	313.55
2448.0000	314.336
2449.0000	314.723
2450.0000	314.335
2451.0000	312.902
2452.0000	313.252
2453.0000	312.897
2454.0000	311.293
2455.0000	310.044
2456.0000	310.894
2457.0000	313.271
2458.0000	315.469
2459.0000	313.385
2460.0000	310.742
2461.0000	311.243
2462.0000	312.76
2463.0000	313.354
2464.0000	310.601
2465.0000	313.543
2466.0000	315.913
2467.0000	311.904
2468.0000	312.608
2469.0000	316.172
2470.0000	313.168
2471.0000	311.254
2472.0000	312.004
2473.0000	315.237
2474.0000	313.253
2475.0000	310.514
2476.0000	313.738
2477.0000	309.526
2478.0000	307.297
2479.0000	311.665
2480.0000	314.325
2481.0000	311.972
2482.0000	308.627
2483.0000	311.187
2484.0000	315.041
2485.0000	315.87
2486.0000	315.288
2487.0000	314.118
2488.0000	315.552
2489.0000	316.316
2490.0000	315.126
2491.0000	315.051
2492.0000	313.232
2493.0000	310.421
2494.0000	313.482
2495.0000	313.228
2496.0000	309.829
2497.0000	311.583
2498.0000	311.015
2499.0000	311.364
2500.0000	313.718
2501.0000	314.833
2502.0000	313.827
2503.0000	311.174
2504.0000	311.752
2505.0000	314.242
2506.0000	313.616
2507.0000	314.209
2508.0000	314.708
2509.0000	313.073
2510.0000	311.873
2511.0000	313.4
2512.0000	317.431
2513.0000	315.259
2514.0000	314.916
2515.0000	314.813
2516.0000	310.848
2517.0000	309.302
2518.0000	310.775
2519.0000	314.187
2520.0000	312.318
2521.0000	311.003
2522.0000	311.769
2523.0000	310.026
2524.0000	313.653
2525.0000	313.308
2526.0000	312.171
2527.0000	311.319
2528.0000	311.847
2529.0000	313.194
2530.0000	312.408
2531.0000	316.749
2532.0000	316.35
2533.0000	315.469
2534.0000	312.932
2535.0000	309.997
2536.0000	313.831
2537.0000	314.649
2538.0000	313.1
2539.0000	311.25
2540.0000	311.385
2541.0000	314.074
2542.0000	311.507
2543.0000	309.325
2544.0000	311.629
2545.0000	310.837
2546.0000	311.303
2547.0000	315.77
2548.0000	314.389
2549.0000	311.348
2550.0000	312.478
2551.0000	314.467
2552.0000	314.167
2553.0000	313.052
2554.0000	316.364
2555.0000	315.865
2556.0000	315.704
2557.0000	316.202
2558.0000	315.036
2559.0000	313.322
2560.0000	313.489
2561.0000	317.371
2562.0000	314.849
2563.0000	314.265
2564.0000	315.745
2565.0000	315.944
2566.0000	314.53
2567.0000	314.728
2568.0000	315.859
2569.0000	313.878
2570.0000	311.807
2571.0000	312.1
2572.0000	311.62
2573.0000	314.077
2574.0000	314.838
2575.0000	312.711
2576.0000	312.322
2577.0000	313.536
2578.0000	315.026
2579.0000	315.775
2580.0000	315.034
2581.0000	315.026
2582.0000	315.577
2583.0000	313.553
2584.0000	309.999
2585.0000	310.733
2586.0000	312.705
2587.0000	312.497
2588.0000	314.044
2589.0000	311.385
2590.0000	311.363
2591.0000	313.284
2592.0000	314.327
2593.0000	313.904
2594.0000	312.125
2595.0000	314.535
2596.0000	314.199
2597.0000	311.573
2598.0000	312.407
2599.0000	311.95
2600.0000	312.87
2601.0000	317.806
2602.0000	316.613
2603.0000	312.499
2604.0000	312.941
2605.0000	311.635
2606.0000	310.841
2607.0000	313.319
2608.0000	312.254
2609.0000	309.625
2610.0000	310.684
2611.0000	312.162
2612.0000	313.182
2613.0000	312.864
2614.0000	316.894
2615.0000	317.213
2616.0000	315.208
2617.0000	315.814
2618.0000	311.197
2619.0000	309.1
2620.0000	309.728
2621.0000	313.46
2622.0000	315.6
2623.0000	317.664
2624.0000	320.65
2625.0000	317.359
2626.0000	313.147
2627.0000	312.48
2628.0000	314.051
2629.0000	314.792
2630.0000	314.447
2631.0000	317.62
2632.0000	315.798
2633.0000	311.347
2634.0000	315.577
2635.0000	314.489
2636.0000	315.794
2637.0000	320.501
2638.0000	318.766
2639.0000	315.821
2640.0000	314.37
2641.0000	313.163
2642.0000	314.191
2643.0000	317.468
2644.0000	317.773
2645.0000	315.276
2646.0000	313.648
2647.0000	313.372
2648.0000	314.02
2649.0000	313.235
2650.0000	313.671
2651.0000	314.284
2652.0000	313.823
2653.0000	313.806
2654.0000	315.182
2655.0000	314.968
2656.0000	311.289
2657.0000	311.799
2658.0000	311.828
2659.0000	312.965
2660.0000	316.4
2661.0000	317.342
2662.0000	315.83
2663.0000	316.089
2664.0000	316.804
2665.0000	313.634
2666.0000	311.577
2667.0000	317.361
2668.0000	317.495
2669.0000	314.986
2670.0000	316.606
2671.0000	317.088
2672.0000	317.331
2673.0000	317.303
2674.0000	316.061
2675.0000	314.403
2676.0000	315.313
2677.0000	315.77
2678.0000	313.847
2679.0000	314.101
2680.0000	317.924
2681.0000	316.74
2682.0000	316.807
2683.0000	316.521
2684.0000	314.376
2685.0000	315.022
2686.0000	315.361
2687.0000	316.479
2688.0000	314.051
2689.0000	313.758
2690.0000	317.845
2691.0000	315.439
2692.0000	313.188
2693.0000	312.521
2694.0000	312.43
2695.0000	313.596
2696.0000	313.607
2697.0000	315.871
2698.0000	316.427
2699.0000	316.32
2700.0000	317.355
2701.0000	317.23
2702.0000	317.542
2703.0000	315.012
2704.0000	314.889
2705.0000	313.291
2706.0000	311.797
2707.0000	314.631
2708.0000	315.817
2709.0000	314.337
2710.0000	312.363
2711.0000	314.453
2712.0000	316.141
2713.0000	317.371
2714.0000	318.239
2715.0000	316.254
2716.0000	317.677
2717.0000	317.23
2718.0000	316.882
2719.0000	318.201
2720.0000	315.357
2721.0000	316.515
2722.0000	317.862
2723.0000	316.296
2724.0000	312.982
2725.0000	313.867
2726.0000	318.841
2727.0000	322.519
2728.0000	318.463
2729.0000	314.506
2730.0000	316.772
2731.0000	316.895
2732.0000	317.457
2733.0000	315.035
2734.0000	314.809
2735.0000	318.816
2736.0000	316.705
2737.0000	316.208
2738.0000	317.838
2739.0000	316.637
2740.0000	317.901
2741.0000	318.391
2742.0000	315.619
2743.0000	313.31
2744.0000	314.483
2745.0000	316.013
2746.0000	317.339
2747.0000	317.595
2748.0000	313.986
2749.0000	314.689
2750.0000	319.686
2751.0000	319.023
2752.0000	313.874
2753.0000	313.491
2754.0000	316.851
2755.0000	316.855
2756.0000	314.973
2757.0000	314.586
2758.0000	318.873
2759.0000	320.624
2760.0000	315.832
2761.0000	313.27
2762.0000	313.759
2763.0000	315.193
2764.0000	314.841
2765.0000	314.861
2766.0000	317.884
2767.0000	314.654
2768.0000	311.942
2769.0000	313.594
2770.0000	314.347
2771.0000	317.183
2772.0000	318.577
2773.0000	318.454
2774.0000	316.4
2775.0000	315.206
2776.0000	316.66
2777.0000	316.535
2778.0000	314.159
2779.0000	314.241
2780.0000	317.589
2781.0000	317.839
2782.0000	317.624
2783.0000	317.019
2784.0000	316.438
2785.0000	316.268
2786.0000	315.613
2787.0000	315.798
2788.0000	313.276
2789.0000	313.93
2790.0000	317.518
2791.0000	320.422
2792.0000	321.089
2793.0000	317.349
2794.0000	315.633
2795.0000	317.024
2796.0000	319.291
2797.0000	318.202
2798.0000	319.267
2799.0000	319.71
2800.0000	314.439
2801.0000	313.782
2802.0000	315.831
2803.0000	317.005
2804.0000	317.285
2805.0000	316.709
2806.0000	316.685
2807.0000	319.15
2808.0000	319.295
2809.0000	316.761
2810.0000	317.205
2811.0000	316.768
2812.0000	314.624
2813.0000	316.91
2814.0000	316.008
2815.0000	316.193
2816.0000	317.746
2817.0000	315.387
2818.0000	315.084
2819.0000	318.727
2820.0000	320.072
2821.0000	315.864
2822.0000	316.623
2823.0000	320.94
2824.0000	320.376
2825.0000	317.368
2826.0000	315.939
2827.0000	316.23
2828.0000	318.593
2829.0000	319.021
2830.0000	315.111
2831.0000	312.865
2832.0000	315.274
2833.0000	314.677
2834.0000	314.121
2835.0000	317.251
2836.0000	315.117
2837.0000	313.688
2838.0000	317.417
2839.0000	319.008
2840.0000	314.499
2841.0000	311.546
2842.0000	312.646
2843.0000	315.289
2844.0000	317.51
2845.0000	317.321
2846.0000	315.818
2847.0000	317.009
2848.0000	319.738
2849.0000	316.605
2850.0000	316.537
2851.0000	316.11
2852.0000	315.077
2853.0000	318.397
2854.0000	319.217
2855.0000	316.806
2856.0000	316.135
2857.0000	315.983
2858.0000	315.591
2859.0000	317.528
2860.0000	318.406
2861.0000	315.837
2862.0000	316.672
2863.0000	318.909
2864.0000	319.444
2865.0000	318.548
2866.0000	314.517
2867.0000	316.014
2868.0000	317.351
2869.0000	316.411
2870.0000	316.552
2871.0000	314.755
2872.0000	318.761
2873.0000	318.01
2874.0000	316.095
2875.0000	318.379
2876.0000	317.736
2877.0000	318.031
2878.0000	317.878
2879.0000	318.638
2880.0000	318.772
2881.0000	318.69
2882.0000	320.214
2883.0000	321.147
2884.0000	320.52
2885.0000	319.038
2886.0000	317.17
2887.0000	318.773
2888.0000	319.877
2889.0000	318.545
2890.0000	320.398
2891.0000	320.459
2892.0000	318.44
2893.0000	319.705
2894.0000	321.071
2895.0000	320.394
2896.0000	320.311
2897.0000	320.749
2898.0000	321.211
2899.0000	318.69
2900.0000	318.005
2901.0000	317.247
2902.0000	314.304
2903.0000	317.806
2904.0000	323.067
2905.0000	322.75
2906.0000	317.815
2907.0000	315.311
2908.0000	317.24
2909.0000	316.471
2910.0000	314.017
2911.0000	316.268
2912.0000	317.257
2913.0000	317.013
2914.0000	317.598
2915.0000	317.349
2916.0000	316.3
2917.0000	317.54
2918.0000	320.739
2919.0000	320.326
2920.0000	319.008
2921.0000	319.406
2922.0000	319.549
2923.0000	317.062
2924.0000	318.316
2925.0000	320.142
2926.0000	318.746
2927.0000	320.018
2928.0000	320.904
2929.0000	320.896
2930.0000	320.518
2931.0000	319.263
2932.0000	320.537
2933.0000	320.85
2934.0000	318.851
2935.0000	318.693
2936.0000	316.908
2937.0000	314.295
2938.0000	317.474
2939.0000	319.346
2940.0000	317.308
2941.0000	318.03
2942.0000	320.792
2943.0000	318.616
2944.0000	320.004
2945.0000	321.227
2946.0000	319.024
2947.0000	321.844
2948.0000	317.723
2949.0000	314.255
2950.0000	319.418
2951.0000	320.751
2952.0000	320.423
2953.0000	322.827
2954.0000	322.095
2955.0000	322.799
2956.0000	320.941
2957.0000	318.71
2958.0000	321.018
2959.0000	318.216
2960.0000	317.083
2961.0000	317.707
2962.0000	317.562
2963.0000	321.642
2964.0000	321.778
2965.0000	317.895
2966.0000	317.922
2967.0000	319.542
2968.0000	318.157
2969.0000	317.51
2970.0000	318.995
2971.0000	319.628
2972.0000	320.563
2973.0000	320.42
2974.0000	318.839
2975.0000	319.191
2976.0000	320.431
2977.0000	319.808
2978.0000	318.953
2979.0000	317.717
2980.0000	318.512
2981.0000	319.544
2982.0000	321.611
2983.0000	322.906
2984.0000	320.488
2985.0000	321.526
2986.0000	321.43
2987.0000	318.652
2988.0000	320.667
2989.0000	319.798
2990.0000	319.226
2991.0000	322.89
2992.0000	321.928
2993.0000	320.122
2994.0000	319.221
2995.0000	316.964
2996.0000	319.228
2997.0000	320.911
2998.0000	320.612
2999.0000	317.717
3000.0000	313.668
3001.0000	319.189
3002.0000	320.266
3003.0000	316.266
3004.0000	316.305
3005.0000	318.451
3006.0000	317.024
3007.0000	315.989
3008.0000	319.773
3009.0000	319.454
3010.0000	317.177
3011.0000	320.065
3012.0000	319.253
3013.0000	318.346
3014.0000	318.463
3015.0000	316.48
3016.0000	316.293
3017.0000	316.043
3018.0000	319.747
3019.0000	323.297
3020.0000	318.869
3021.0000	317.124
3022.0000	319.684
3023.0000	320.202
3024.0000	320.968
3025.0000	320.914
3026.0000	319.633
3027.0000	318.475
3028.0000	318.799
3029.0000	318.197
3030.0000	317.687
3031.0000	321.266
3032.0000	323.349
3033.0000	317.872
3034.0000	314.015
3035.0000	317.832
3036.0000	320.599
3037.0000	321.715
3038.0000	320.97
3039.0000	317.632
3040.0000	317.547
3041.0000	318.696
3042.0000	319.93
3043.0000	320.224
3044.0000	319.113
3045.0000	317.939
3046.0000	318.029
3047.0000	317.768
3048.0000	316.456
3049.0000	318.31
3050.0000	318.366
3051.0000	317.701
3052.0000	317.305
3053.0000	316.73
3054.0000	316.978
3055.0000	319.413
3056.0000	319.792
3057.0000	315.795
3058.0000	316.699
3059.0000	317.146
3060.0000	316.3
3061.0000	314.939
3062.0000	316.04
3063.0000	318.589
3064.0000	320.227
3065.0000	319.887
3066.0000	309.32
3067.0000	301.635
3068.0000	302.485
3069.0000	302.403
3070.0000	303.507
3071.0000	303.863
3072.0000	304.281
3073.0000	304.787
3074.0000	304.377
3075.0000	304.835
3076.0000	303.89
3077.0000	302.407
3078.0000	301.545
3079.0000	303.815
3080.0000	305.668
3081.0000	303.584
3082.0000	303.744
3083.0000	306.079
3084.0000	305.287
3085.0000	304.523
3086.0000	304.871
3087.0000	303.888
3088.0000	302.599
3089.0000	302.322
3090.0000	301.917
3091.0000	300.257
3092.0000	301.967
3093.0000	305.053
3094.0000	302.962
3095.0000	301.337
3096.0000	302.702
3097.0000	305.284
3098.0000	306.217
3099.0000	305.133
3100.0000	302.68
3101.0000	303.365
3102.0000	304.293
3103.0000	303.617
3104.0000	302.555
3105.0000	301.49
3106.0000	305.197
3107.0000	309.317
3108.0000	308.165
3109.0000	304.574
3110.0000	305.264
3111.0000	304.85
3112.0000	303.712
3113.0000	304.973
3114.0000	304.581
3115.0000	304.907
3116.0000	306.087
3117.0000	305.147
3118.0000	303.603
3119.0000	303.657
3120.0000	302.083
3121.0000	302.082
3122.0000	305.509
3123.0000	303.488
3124.0000	304.926
3125.0000	306.162
3126.0000	304.94
3127.0000	304.731
3128.0000	300.713
3129.0000	300.584
3130.0000	302.541
3131.0000	303.571
3132.0000	304.287
3133.0000	306.517
3134.0000	303.484
3135.0000	300.456
3136.0000	304.049
3137.0000	303.734
3138.0000	301.845
3139.0000	302.102
3140.0000	301.797
3141.0000	303.39
3142.0000	304.601
3143.0000	304.326
3144.0000	305.325
3145.0000	304.892
3146.0000	302.939
3147.0000	302.764
3148.0000	305.9
3149.0000	305.693
3150.0000	303.274
3151.0000	302.332
3152.0000	302.229
3153.0000	307.673
3154.0000	308.576
3155.0000	305.829
3156.0000	307.062
3157.0000	304.597
3158.0000	303.546
3159.0000	308.239
3160.0000	310.03
3161.0000	307.982
3162.0000	306.919
3163.0000	302.754
3164.0000	301.029
3165.0000	307.005
3166.0000	308.674
3167.0000	306.647
3168.0000	309.266
3169.0000	311.363
3170.0000	312.398
3171.0000	316.797
3172.0000	317.94
3173.0000	316.938
3174.0000	320.268
3175.0000	323.661
3176.0000	321.974
3177.0000	321.96
3178.0000	323.699
3179.0000	321.269
3180.0000	319.516
3181.0000	316.917
3182.0000	318.051
3183.0000	321.151
3184.0000	321.367
3185.0000	321.347
3186.0000	319.439
3187.0000	322.099
3188.0000	322.44
3189.0000	318.207
3190.0000	319.895
3191.0000	318.913
3192.0000	316.017
3193.0000	319.049
3194.0000	322.598
3195.0000	324.496
3196.0000	324.273
3197.0000	321.249
3198.0000	322.039
3199.0000	325.444
3200.0000	322.309
3201.0000	319.912
3202.0000	320.383
3203.0000	320.268
3204.0000	321.903
3205.0000	321.718
3206.0000	317.956
3207.0000	317.251
3208.0000	322.057
3209.0000	321.93
3210.0000	320.979
3211.0000	321.014
3212.0000	321.692
3213.0000	321.806
3214.0000	323.038
3215.0000	323.568
3216.0000	320.76
3217.0000	323.799
3218.0000	322.807
3219.0000	321.208
3220.0000	322.127
3221.0000	321.266
3222.0000	322.103
3223.0000	318.976
3224.0000	320.301
3225.0000	321.023
3226.0000	318.312
3227.0000	320.941
3228.0000	321.745
3229.0000	320.037
3230.0000	319.234
3231.0000	317.285
3232.0000	316.19
3233.0000	318.167
3234.0000	319.932
3235.0000	320.292
3236.0000	321.902
3237.0000	320.534
3238.0000	319.353
3239.0000	323.537
3240.0000	323.081
3241.0000	320.909
3242.0000	324.485
3243.0000	323.634
3244.0000	320.652
3245.0000	319.204
3246.0000	318.972
3247.0000	319.698
3248.0000	318.025
3249.0000	319.354
3250.0000	321.614
3251.0000	322.57
3252.0000	323.529
3253.0000	323.829
3254.0000	322.605
3255.0000	322.072
3256.0000	318.928
3257.0000	318.728
3258.0000	324.927
3259.0000	323.544
3260.0000	316.763
3261.0000	319.529
3262.0000	323.134
3263.0000	320.775
3264.0000	320.847
3265.0000	320.601
3266.0000	321.468
3267.0000	322.552
3268.0000	322.784
3269.0000	323.806
3270.0000	322.399
3271.0000	323.185
3272.0000	322.85
3273.0000	320.713
3274.0000	319.769
3275.0000	323.776
3276.0000	324.803
3277.0000	324.968
3278.0000	326.395
3279.0000	326.164
3280.0000	324.326
3281.0000	320.842
3282.0000	319.189
3283.0000	318.089
3284.0000	321.723
3285.0000	324.087
3286.0000	324.308
3287.0000	322.009
3288.0000	319.641
3289.0000	319.133
3290.0000	322.245
3291.0000	324.016
3292.0000	320.404
3293.0000	320.398
3294.0000	323.549
3295.0000	322.887
3296.0000	321.112
3297.0000	321.098
3298.0000	321.361
3299.0000	321.442
3300.0000	322.559
3301.0000	325.738
3302.0000	325.814
3303.0000	322.659
3304.0000	321.731
3305.0000	321.266
3306.0000	324.4
3307.0000	325.591
3308.0000	320.779
3309.0000	318.685
3310.0000	321.271
3311.0000	323.518
3312.0000	322.605
3313.0000	324.349
3314.0000	323.374
3315.0000	323.088
3316.0000	322.484
3317.0000	321.23
3318.0000	322.441
3319.0000	323.763
3320.0000	323.396
3321.0000	322.818
3322.0000	322.76
3323.0000	323.361
3324.0000	324.8
3325.0000	322.441
3326.0000	320.083
3327.0000	320.788
3328.0000	321.62
3329.0000	320.995
3330.0000	320.002
3331.0000	319.956
3332.0000	323.981
3333.0000	323.332
3334.0000	322.329
3335.0000	326.5
3336.0000	325.5
3337.0000	322.272
3338.0000	323.165
3339.0000	323.025
3340.0000	323.028
3341.0000	322.933
3342.0000	323.155
3343.0000	323.321
3344.0000	321.894
3345.0000	320.671
3346.0000	319.084
3347.0000	321.822
3348.0000	323.128
3349.0000	323.132
3350.0000	323.614
3351.0000	322.481
3352.0000	324.303
3353.0000	327.466
3354.0000	325.496
3355.0000	322.888
3356.0000	325.41
3357.0000	326.051
3358.0000	324.245
3359.0000	323.862
3360.0000	324.186
3361.0000	325.238
3362.0000	325.406
3363.0000	323.278
3364.0000	322.053
3365.0000	323.936
3366.0000	321.161
3367.0000	322.947
3368.0000	325.953
3369.0000	323.41
3370.0000	322.77
3371.0000	323.542
3372.0000	323.381
3373.0000	323.132
3374.0000	323.556
3375.0000	323.548
3376.0000	324.216
3377.0000	325.555
3378.0000	324.941
3379.0000	323.474
3380.0000	323.385
3381.0000	321.005
3382.0000	319.188
3383.0000	321.116
3384.0000	321.727
3385.0000	322.23
3386.0000	324.922
3387.0000	324.006
3388.0000	320.573
3389.0000	322.776
3390.0000	324.305
3391.0000	322.764
3392.0000	321.596
3393.0000	320.139
3394.0000	323.638
3395.0000	326.055
3396.0000	324.525
3397.0000	321.546
3398.0000	319.23
3399.0000	324.106
3400.0000	324.536
3401.0000	323.119
3402.0000	324.672
3403.0000	323.804
3404.0000	326.719
3405.0000	325.412
3406.0000	323.545
3407.0000	325.408
3408.0000	325.019
3409.0000	324.425
3410.0000	325.186
3411.0000	323.744
3412.0000	322.103
3413.0000	321.564
3414.0000	323.462
3415.0000	324.629
3416.0000	323.941
3417.0000	323.256
3418.0000	324.264
3419.0000	327.406
3420.0000	325.564
3421.0000	322.792
3422.0000	325.582
3423.0000	327.498
3424.0000	324.758
3425.0000	322.45
3426.0000	321.138
3427.0000	320.954
3428.0000	323.743
3429.0000	322.22
3430.0000	321.343
3431.0000	322.566
3432.0000	324.68
3433.0000	325.635
3434.0000	322.462
3435.0000	323.859
3436.0000	325.56
3437.0000	322.818
3438.0000	320.16
3439.0000	323.297
3440.0000	324.45
3441.0000	324.018
3442.0000	325.192
3443.0000	324.201
3444.0000	323.635
3445.0000	322.87
3446.0000	325.933
3447.0000	325.324
3448.0000	324.818
3449.0000	325.917
3450.0000	320.126
3451.0000	319.232
3452.0000	320.45
3453.0000	319.76
3454.0000	325.253
3455.0000	327.023
3456.0000	322.82
3457.0000	320.377
3458.0000	319.296
3459.0000	320.662
3460.0000	322.38
3461.0000	323.64
3462.0000	322.431
3463.0000	319.899
3464.0000	322.491
3465.0000	325.263
3466.0000	320.536
3467.0000	320.521
3468.0000	321.876
3469.0000	323.353
3470.0000	327.055
3471.0000	324.836
3472.0000	324.428
3473.0000	324.877
3474.0000	322.556
3475.0000	325.659
3476.0000	328.145
3477.0000	323.834
3478.0000	324.033
3479.0000	325.045
3480.0000	324.568
3481.0000	322.481
3482.0000	320.436
3483.0000	323.666
3484.0000	324.464
3485.0000	322.928
3486.0000	322.769
3487.0000	325.937
3488.0000	326.384
3489.0000	323.242
3490.0000	322.853
3491.0000	323.665
3492.0000	322.386
3493.0000	320.897
3494.0000	320.303
3495.0000	317.656
3496.0000	318.66
3497.0000	321.117
3498.0000	322.607
3499.0000	322.74
3500.0000	323.213
3501.0000	323.538
3502.0000	322.322
3503.0000	326.085
3504.0000	326.65
3505.0000	325.255
3506.0000	324.845
3507.0000	322.96
3508.0000	323.742
3509.0000	324.972
3510.0000	321.367
3511.0000	323.402
3512.0000	325.717
3513.0000	323.234
3514.0000	324.663
3515.0000	323.163
3516.0000	319.827
3517.0000	321.707
3518.0000	324.555
3519.0000	324.083
3520.0000	326.102
3521.0000	325.855
3522.0000	325.733
3523.0000	324.779
3524.0000	322.593
3525.0000	321.563
3526.0000	320.231
3527.0000	322.333
3528.0000	324.466
3529.0000	325.595
3530.0000	325.305
3531.0000	324.064
3532.0000	324.046
3533.0000	324.174
3534.0000	324.414
3535.0000	324.325
3536.0000	326.819
3537.0000	328.075
3538.0000	322.997
3539.0000	322.532
3540.0000	325.428
3541.0000	325.67
3542.0000	324.65
3543.0000	324.337
3544.0000	323.91
3545.0000	324.821
3546.0000	323.838
3547.0000	321.263
3548.0000	324.911
3549.0000	324.428
3550.0000	321.225
3551.0000	323.23
3552.0000	325.003
3553.0000	323.117
3554.0000	323.3
3555.0000	326.464
3556.0000	325.811
3557.0000	324.862
3558.0000	328.162
3559.0000	325.384
3560.0000	324.565
3561.0000	327.453
3562.0000	323.796
3563.0000	323.113
3564.0000	325.919
3565.0000	323.416
3566.0000	321.078
3567.0000	322.906
3568.0000	323.927
3569.0000	321.921
3570.0000	319.979
3571.0000	320.881
3572.0000	322.107
3573.0000	327.137
3574.0000	329.998
3575.0000	325.389
3576.0000	323.086
3577.0000	326.658
3578.0000	326.723
3579.0000	327.339
3580.0000	327.446
3581.0000	325.29
3582.0000	324.214
3583.0000	324.014
3584.0000	325.072
3585.0000	325.071
3586.0000	324.629
3587.0000	326.304
3588.0000	328.115
3589.0000	322.976
3590.0000	319.04
3591.0000	322.449
3592.0000	322.679
3593.0000	322.165
3594.0000	324.995
3595.0000	325.617
3596.0000	323.347
3597.0000	321.267
3598.0000	324.673
3599.0000	325.437
3600.0000	323.708
3601.0000	323.622
3602.0000	324.673
3603.0000	323.933
3604.0000	323.718
3605.0000	327.899
3606.0000	327.865
3607.0000	323.304
3608.0000	319.395
3609.0000	321.214
3610.0000	325.252
3611.0000	328.168
3612.0000	329.056
3613.0000	326.366
3614.0000	322.968
3615.0000	326.171
3616.0000	326.678
3617.0000	323.513
3618.0000	326.987
3619.0000	328.472
3620.0000	326.769
3621.0000	324.929
3622.0000	323.298
3623.0000	323.01
3624.0000	322.188
3625.0000	322.014
3626.0000	324.191
3627.0000	325.354
3628.0000	325.494
3629.0000	326.489
3630.0000	327.299
3631.0000	323.232
3632.0000	323.227
3633.0000	326.648
3634.0000	326.388
3635.0000	326.011
3636.0000	324.416
3637.0000	324.35
3638.0000	323.857
3639.0000	324.29
3640.0000	325.521
3641.0000	324.751
3642.0000	324.484
3643.0000	326.702
3644.0000	327.131
3645.0000	323.462
3646.0000	322.923
3647.0000	324.753
3648.0000	325.877
3649.0000	322.614
3650.0000	323.313
3651.0000	325.138
3652.0000	321.593
3653.0000	322.795
3654.0000	323.143
3655.0000	322.229
3656.0000	324.895
3657.0000	327.578
3658.0000	327.448
3659.0000	325.074
3660.0000	322.697
3661.0000	325.771
3662.0000	326.242
3663.0000	323.513
3664.0000	324.679
3665.0000	323.966
3666.0000	323.727
3667.0000	324.388
3668.0000	324.982
3669.0000	323.501
3670.0000	324.242
3671.0000	327.545
3672.0000	326.177
3673.0000	321.005
3674.0000	319.971
3675.0000	326.377
3676.0000	329.457
3677.0000	324.697
3678.0000	322.774
3679.0000	328.135
3680.0000	329.714
3681.0000	324.15
3682.0000	324.292
3683.0000	326.725
3684.0000	324.37
3685.0000	322.285
3686.0000	324.143
3687.0000	325.174
3688.0000	324.256
3689.0000	325.484
3690.0000	323.763
3691.0000	322.037
3692.0000	321.396
3693.0000	323.488
3694.0000	326.198
3695.0000	324.584
3696.0000	325.335
3697.0000	326.974
3698.0000	325.298
3699.0000	321.671
3700.0000	323.988
3701.0000	326.863
3702.0000	325.887
3703.0000	324.905
3704.0000	322.989
3705.0000	321.914
3706.0000	322.818
3707.0000	325.364
3708.0000	323.31
3709.0000	320.805
3710.0000	320.689
3711.0000	322.992
3712.0000	326.327
3713.0000	326.543
3714.0000	324.931
3715.0000	323.327
3716.0000	323.079
3717.0000	323.88
3718.0000	324.377
3719.0000	324.823
3720.0000	325.884
3721.0000	324.69
3722.0000	324.731
3723.0000	326.648
3724.0000	326.488
3725.0000	325.549
3726.0000	325.567
3727.0000	326.194
3728.0000	323.789
3729.0000	323.573
3730.0000	326.916
3731.0000	328.104
3732.0000	326.121
3733.0000	321.536
3734.0000	321.783
3735.0000	324.522
3736.0000	324.952
3737.0000	325.539
3738.0000	323.373
3739.0000	323.772
3740.0000	326.787
3741.0000	329.263
3742.0000	327.262
3743.0000	323.283
3744.0000	324.832
3745.0000	325.566
3746.0000	326.758
3747.0000	330.088
3748.0000	332.24
3749.0000	329.919
3750.0000	326.009
3751.0000	326.789
3752.0000	324.783
3753.0000	322.727
3754.0000	326.693
3755.0000	324.561
3756.0000	322.151
3757.0000	323.928
3758.0000	325.808
3759.0000	328.655
3760.0000	324.776
3761.0000	321.177
3762.0000	323.355
3763.0000	324.547
3764.0000	324.511
3765.0000	323.975
3766.0000	327.599
3767.0000	329.357
3768.0000	326.875
3769.0000	327.004
3770.0000	324.674
3771.0000	325.628
3772.0000	328.604
3773.0000	326.92
3774.0000	327.93
3775.0000	326.806
3776.0000	325.44
3777.0000	325.083
3778.0000	324.356
3779.0000	325.245
3780.0000	324.438
3781.0000	325.459
3782.0000	324.245
3783.0000	321.951
3784.0000	323.765
3785.0000	326.214
3786.0000	329.956
3787.0000	328.653
3788.0000	324.304
3789.0000	324.361
3790.0000	323.6
3791.0000	323.923
3792.0000	325.383
3793.0000	324.64
3794.0000	323.367
3795.0000	324.62
3796.0000	324.548
3797.0000	321.642
3798.0000	323.308
3799.0000	326.023
3800.0000	325.151
3801.0000	323.001
3802.0000	324.465
3803.0000	328.976
3804.0000	327.956
3805.0000	328.096
3806.0000	329.311
3807.0000	325.508
3808.0000	323.902
3809.0000	324.772
3810.0000	328.401
3811.0000	329.933
3812.0000	325.718
3813.0000	324.716
3814.0000	327.519
3815.0000	327.748
3816.0000	325.627
3817.0000	327.35
3818.0000	325.996
3819.0000	321.69
3820.0000	322.556
3821.0000	326.01
3822.0000	326.424
3823.0000	324.839
3824.0000	328.328
3825.0000	331.04
3826.0000	328.93
3827.0000	324.671
3828.0000	325.913
3829.0000	328.182
3830.0000	326.992
3831.0000	325.429
3832.0000	324.683
3833.0000	324.917
3834.0000	326.11
3835.0000	326.187
3836.0000	327.042
3837.0000	330.566
3838.0000	328.739
3839.0000	324.727
3840.0000	325.994
3841.0000	328.585
3842.0000	329.379
3843.0000	327.337
3844.0000	321.47
3845.0000	321.461
3846.0000	326.337
3847.0000	325.906
3848.0000	320.123
3849.0000	321.869
3850.0000	324.798
3851.0000	325.459
3852.0000	325.609
3853.0000	323.48
3854.0000	326.735
3855.0000	325.913
3856.0000	325.63
3857.0000	325.116
3858.0000	320.35
3859.0000	320.095
3860.0000	322.2
3861.0000	326.184
3862.0000	326.482
3863.0000	325.248
3864.0000	326.053
3865.0000	328.874
3866.0000	329.7
3867.0000	327.423
3868.0000	327.285
3869.0000	327.096
3870.0000	325.974
3871.0000	326.562
3872.0000	326.842
3873.0000	324.921
3874.0000	326.682
3875.0000	329.376
3876.0000	327.35
3877.0000	325.744
3878.0000	327.299
3879.0000	330.053
3880.0000	327.79
3881.0000	326.011
3882.0000	327.009
3883.0000	324.936
3884.0000	323.756
3885.0000	325.072
3886.0000	327.309
3887.0000	325.426
3888.0000	324.448
3889.0000	325.858
3890.0000	329.474
3891.0000	328.023
3892.0000	323.646
3893.0000	324.123
3894.0000	322.561
3895.0000	324.917
3896.0000	328.237
3897.0000	327.274
3898.0000	325.411
3899.0000	324.04
3900.0000	328.369
3901.0000	326.659
3902.0000	325.046
3903.0000	328.025
3904.0000	327.161
3905.0000	327.344
3906.0000	327.028
3907.0000	326.685
3908.0000	328.56
3909.0000	328.555
3910.0000	326.702
3911.0000	327.048
3912.0000	327.365
3913.0000	326.867
3914.0000	327.448
3915.0000	327.666
3916.0000	327.463
3917.0000	326.7
3918.0000	327.12
3919.0000	330.36
3920.0000	326.822
3921.0000	323.804
3922.0000	328.262
3923.0000	329.021
3924.0000	331.219
3925.0000	330.839
3926.0000	325.515
3927.0000	326.961
3928.0000	327.006
3929.0000	327.411
3930.0000	325.949
3931.0000	324.41
3932.0000	327.568
3933.0000	327.591
3934.0000	326.009
3935.0000	328.926
3936.0000	331.006
3937.0000	326.007
3938.0000	325.927
3939.0000	323.385
3940.0000	320.551
3941.0000	325.282
3942.0000	326.808
3943.0000	326.86
3944.0000	329.056
3945.0000	327.957
3946.0000	323.572
3947.0000	321.193
3948.0000	323.075
3949.0000	325.052
3950.0000	322.269
3951.0000	327.941
3952.0000	330.159
3953.0000	325.744
3954.0000	325.822
3955.0000	325.271
3956.0000	327.024
3957.0000	326.45
3958.0000	325.27
3959.0000	325.271
3960.0000	323.054
3961.0000	325.754
3962.0000	326.293
3963.0000	323.729
3964.0000	324.187
3965.0000	326.926
3966.0000	325.787
3967.0000	325.282
3968.0000	327.66
3969.0000	326.438
3970.0000	326.182
3971.0000	327.412
3972.0000	328.853
3973.0000	327.898
3974.0000	325.884
3975.0000	324.769
3976.0000	324.791
3977.0000	328.057
3978.0000	326.543
3979.0000	321.469
3980.0000	325.539
3981.0000	327.839
3982.0000	324.759
3983.0000	327.221
3984.0000	329.291
3985.0000	326.286
3986.0000	325.48
3987.0000	326.508
3988.0000	326.648
3989.0000	327.561
3990.0000	327.598
3991.0000	324.676
3992.0000	323.113
3993.0000	326.263
3994.0000	329.082
3995.0000	328.654
3996.0000	329.383
3997.0000	328.618
3998.0000	326.556
3999.0000	327.472
4000.0000	327.424
4001.0000	326.432
4002.0000	329.621
4003.0000	325.738
4004.0000	324.836
4005.0000	328.329
4006.0000	329.234
4007.0000	329.007
4008.0000	326.13
4009.0000	327.878
4010.0000	330.326
4011.0000	332.57
4012.0000	330.581
4013.0000	327.83
4014.0000	329.199
4015.0000	327.962
4016.0000	325.842
4017.0000	329.59
4018.0000	328.55
4019.0000	327.118
4020.0000	327.78
4021.0000	327.18
4022.0000	328.272
4023.0000	326.375
4024.0000	327.25
4025.0000	328.46
4026.0000	326.673
4027.0000	326.226
4028.0000	327.571
4029.0000	328.4
4030.0000	328.639
4031.0000	327.879
4032.0000	327.47
4033.0000	326.573
4034.0000	324.776
4035.0000	329.129
4036.0000	330.605
4037.0000	325.59
4038.0000	326.858
4039.0000	326.368
4040.0000	324.319
4041.0000	326.916
4042.0000	328.123
4043.0000	327.588
4044.0000	326.901
4045.0000	325.997
4046.0000	326.215
4047.0000	327.175
4048.0000	324.62
4049.0000	324.251
4050.0000	323.52
4051.0000	323.845
4052.0000	328.331
4053.0000	331.604
4054.0000	327.611
4055.0000	324.151
4056.0000	325.138
4057.0000	325.312
4058.0000	324.409
4059.0000	321.654
4060.0000	324.431
4061.0000	326.642
4062.0000	325.974
4063.0000	326.431
4064.0000	325.668
4065.0000	322.995
4066.0000	323.51
4067.0000	327.401
4068.0000	327.881
4069.0000	328.497
4070.0000	330.442
4071.0000	329.732
4072.0000	328.221
4073.0000	327.628
4074.0000	327.842
4075.0000	330.493
4076.0000	327.98
4077.0000	326.952
4078.0000	327.698
4079.0000	325.701
4080.0000	326.088
4081.0000	327.945
4082.0000	329.715
4083.0000	328.676
4084.0000	328.328
4085.0000	327.518
4086.0000	324.717
4087.0000	326.008
4088.0000	325.875
4089.0000	323.265
4090.0000	328.928
4091.0000	329.951
4092.0000	325.884
4093.0000	327.262
4094.0000	330.779
4095.0000	330.981
4096.0000	328.548
4097.0000	328.673
4098.0000	326.509
4099.0000	325.981
4100.0000	327.82
4101.0000	328.271
4102.0000	330.259
4103.0000	328.683
4104.0000	323.928
4105.0000	324.061
4106.0000	327.524
4107.0000	326.11
4108.0000	325.973
4109.0000	326.202
4110.0000	329.232
4111.0000	328.384
4112.0000	324.083
4113.0000	327.023
4114.0000	328.367
4115.0000	330.415
4116.0000	328.392
4117.0000	324.259
4118.0000	325.724
4119.0000	326.789
4120.0000	328.463
4121.0000	330.003
4122.0000	328.131
4123.0000	325.035
4124.0000	326.528
4125.0000	328.804
4126.0000	326.815
4127.0000	325.035
4128.0000	327.501
4129.0000	327.587
4130.0000	325.57
4131.0000	328.54
4132.0000	326.201
4133.0000	323.546
4134.0000	328.86
4135.0000	331.414
4136.0000	330.312
4137.0000	329.269
4138.0000	326.586
4139.0000	325.355
4140.0000	326.254
4141.0000	328.89
4142.0000	329.467
4143.0000	329.688
4144.0000	329.51
4145.0000	329.955
4146.0000	329.127
4147.0000	326.151
4148.0000	325.255
4149.0000	324.803
4150.0000	325.037
4151.0000	328.071
4152.0000	327.98
4153.0000	324.317
4154.0000	324.891
4155.0000	326.296
4156.0000	324.818
4157.0000	325.076
4158.0000	325.493
4159.0000	324.189
4160.0000	328.624
4161.0000	332.309
4162.0000	329.316
4163.0000	326.875
4164.0000	328.622
4165.0000	329.063
4166.0000	327.098
4167.0000	327.446
4168.0000	328.006
4169.0000	327.995
4170.0000	327.586
4171.0000	324.689
4172.0000	323.091
4173.0000	326.403
4174.0000	328.02
4175.0000	326.322
4176.0000	325.867
4177.0000	324.31
4178.0000	324.551
4179.0000	325.057
4180.0000	325.145
4181.0000	326.971
4182.0000	326.752
4183.0000	324.737
4184.0000	327.634
4185.0000	329.933
4186.0000	328.697
4187.0000	330.405
4188.0000	330.914
4189.0000	327.111
4190.0000	326.22
4191.0000	327.176
4192.0000	327.067
4193.0000	328.263
4194.0000	329.282
4195.0000	330.01
4196.0000	328.009
4197.0000	327.037
4198.0000	328.753
4199.0000	327.302
4200.0000	323.059
4201.0000	323.688
4202.0000	328.044
4203.0000	328.336
4204.0000	331.42
4205.0000	331.585
4206.0000	326.154
4207.0000	327.169
4208.0000	327.655
4209.0000	327.553
4210.0000	328.979
4211.0000	327.359
4212.0000	326.159
4213.0000	327.67
4214.0000	328.152
4215.0000	328.012
4216.0000	328.879
4217.0000	328.117
4218.0000	330.42
4219.0000	330.85
4220.0000	328.656
4221.0000	327.065
4222.0000	326.12
4223.0000	329.78
4224.0000	329.539
4225.0000	326.792
4226.0000	329.315
4227.0000	329.97
4228.0000	328.3
4229.0000	328.962
4230.0000	328.773
4231.0000	329.428
4232.0000	327.731
4233.0000	328.88
4234.0000	330.852
4235.0000	328.289
4236.0000	327.266
4237.0000	327.291
4238.0000	327.132
4239.0000	327.018
4240.0000	331.173
4241.0000	332.049
4242.0000	330.196
4243.0000	333.314
4244.0000	330.248
4245.0000	329.377
4246.0000	330.66
4247.0000	330.01
4248.0000	331.212
4249.0000	331.05
4250.0000	333.184
4251.0000	332.769
4252.0000	330.048
4253.0000	326.256
4254.0000	326.973
4255.0000	327.939
4256.0000	327.667
4257.0000	327.787
4258.0000	327.346
4259.0000	328.804
4260.0000	327.493
4261.0000	328.068
4262.0000	328.334
4263.0000	327.323
4264.0000	327.987
4265.0000	328.339
4266.0000	326.814
4267.0000	329.743
4268.0000	333.616
4269.0000	330.01
4270.0000	325.174
4271.0000	325.53
4272.0000	327.113
4273.0000	327.309
4274.0000	330.207
4275.0000	330.963
4276.0000	327.441
4277.0000	326.52
4278.0000	328.554
4279.0000	329.846
4280.0000	327.776
4281.0000	326.384
4282.0000	326.099
4283.0000	325.25
4284.0000	328.942
4285.0000	330.105
4286.0000	329.226
4287.0000	326.916
4288.0000	329.498
4289.0000	328.843
4290.0000	327.787
4291.0000	329.881
4292.0000	326.575
4293.0000	331.028
4294.0000	334.273
4295.0000	330.108
4296.0000	327.484
4297.0000	326.46
4298.0000	327.028
4299.0000	328.468
4300.0000	330.561
4301.0000	334.031
4302.0000	331.761
4303.0000	328.371
4304.0000	326.402
4305.0000	328.752
4306.0000	329.748
4307.0000	329.763
4308.0000	332.037
4309.0000	329.92
4310.0000	329.079
4311.0000	330.579
4312.0000	331.618
4313.0000	330.003
4314.0000	329.467
4315.0000	328.124
4316.0000	326.169
4317.0000	328.403
4318.0000	329.115
4319.0000	325.522
4320.0000	323.79
4321.0000	326.179
4322.0000	326.463
4323.0000	329.635
4324.0000	329.141
4325.0000	326.932
4326.0000	328.849
4327.0000	326.827
4328.0000	327.702
4329.0000	327.842
4330.0000	327.691
4331.0000	325.944
4332.0000	327.701
4333.0000	328.761
4334.0000	327.889
4335.0000	329.276
4336.0000	330.98
4337.0000	330.8
4338.0000	328.869
4339.0000	326.976
4340.0000	324.157
4341.0000	325.183
4342.0000	325.606
4343.0000	325.483
4344.0000	326.121
4345.0000	326.641
4346.0000	329.178
4347.0000	334.022
4348.0000	331.96
4349.0000	330.982
4350.0000	329.808
4351.0000	325.415
4352.0000	324.446
4353.0000	328.62
4354.0000	330.488
4355.0000	328.246
4356.0000	330.572
4357.0000	329.542
4358.0000	329.784
4359.0000	333.958
4360.0000	330.323
4361.0000	326.731
4362.0000	330.349
4363.0000	331.042
4364.0000	330.517
4365.0000	329.892
4366.0000	328.339
4367.0000	329.662
4368.0000	329.253
4369.0000	325.655
4370.0000	327.717
4371.0000	330.815
4372.0000	329.645
4373.0000	329.903
4374.0000	331.191
4375.0000	328.796
4376.0000	328.723
4377.0000	327.229
4378.0000	324.618
4379.0000	325.306
4380.0000	328.819
4381.0000	333.633
4382.0000	332.494
4383.0000	331.697
4384.0000	330.514
4385.0000	328.838
4386.0000	331.116
4387.0000	330.215
4388.0000	330.002
4389.0000	332.584
4390.0000	331.877
4391.0000	328.755
4392.0000	328.839
4393.0000	329.202
4394.0000	328.463
4395.0000	331.075
4396.0000	331.622
4397.0000	328.53
4398.0000	325.701
4399.0000	328.86
4400.0000	330.883
4401.0000	325.608
4402.0000	323.896
4403.0000	330.619
4404.0000	332.875
4405.0000	331.813
4406.0000	330.895
4407.0000	329.101
4408.0000	324.735
4409.0000	324.015
4410.0000	328.985
4411.0000	328.883
4412.0000	329.513
4413.0000	330.047
4414.0000	329.344
4415.0000	330.264
4416.0000	331.121
4417.0000	331.629
4418.0000	331.597
4419.0000	332.752
4420.0000	329.529
4421.0000	329.082
4422.0000	328.639
4423.0000	324.408
4424.0000	326.171
4425.0000	329.281
4426.0000	329.992
4427.0000	326.108
4428.0000	325.995
4429.0000	331.066
4430.0000	330.448
4431.0000	329.956
4432.0000	331.239
4433.0000	328.639
4434.0000	326.73
4435.0000	325.418
4436.0000	328.819
4437.0000	331.316
4438.0000	331.073
4439.0000	333.281
4440.0000	331.338
4441.0000	328.772
4442.0000	329.297
4443.0000	329.348
4444.0000	327.281
4445.0000	328.739
4446.0000	330.446
4447.0000	327.667
4448.0000	326.492
4449.0000	327.067
4450.0000	326.972
4451.0000	326.82
4452.0000	329.785
4453.0000	331.618
4454.0000	327.263
4455.0000	327.177
4456.0000	329.024
4457.0000	326.206
4458.0000	325.557
4459.0000	324.81
4460.0000	326.615
4461.0000	330.096
4462.0000	328.443
4463.0000	330.237
4464.0000	335.151
4465.0000	332.835
4466.0000	327.468
4467.0000	327.469
4468.0000	331.621
4469.0000	334.36
4470.0000	332.565
4471.0000	330.06
4472.0000	331.195
4473.0000	326.23
4474.0000	324.473
4475.0000	330.507
4476.0000	334.304
4477.0000	335.74
4478.0000	330.485
4479.0000	327.538
4480.0000	327.935
4481.0000	329.36
4482.0000	330.103
4483.0000	326.367
4484.0000	323.639
4485.0000	325.637
4486.0000	328.319
4487.0000	330.423
4488.0000	329.059
4489.0000	327.365
4490.0000	329.474
4491.0000	330.57
4492.0000	332.132
4493.0000	331.732
4494.0000	330.559
4495.0000	331.182
4496.0000	331.077
4497.0000	330.51
4498.0000	328.576
4499.0000	327.245
4500.0000	327.111
4501.0000	327.934
4502.0000	329.827
4503.0000	330.074
4504.0000	329.91
4505.0000	329.738
4506.0000	329.867
4507.0000	330.859
4508.0000	333.204
4509.0000	329.233
4510.0000	324.433
4511.0000	327.308
4512.0000	328.299
4513.0000	329.103
4514.0000	327.605
4515.0000	327.714
4516.0000	331.548
4517.0000	328.323
4518.0000	325.526
4519.0000	326.947
4520.0000	327.704
4521.0000	327.487
4522.0000	326.997
4523.0000	326.793
4524.0000	330.007
4525.0000	333.49
4526.0000	329.708
4527.0000	328.328
4528.0000	328.41
4529.0000	323.448
4530.0000	323.114
4531.0000	327.963
4532.0000	329.745
4533.0000	332.367
4534.0000	332.183
4535.0000	327.081
4536.0000	329.376
4537.0000	329.235
4538.0000	328.269
4539.0000	331.792
4540.0000	330.795
4541.0000	330.357
4542.0000	332.527
4543.0000	331.558
4544.0000	329.136
4545.0000	329.904
4546.0000	332.117
4547.0000	331.775
4548.0000	331.817
4549.0000	329.456
4550.0000	328.143
4551.0000	329.196
4552.0000	327.002
4553.0000	328.113
4554.0000	332.16
4555.0000	331.546
4556.0000	331.102
4557.0000	328.7
4558.0000	327.335
4559.0000	330.689
4560.0000	329.73
4561.0000	330.387
4562.0000	329.46
4563.0000	327.766
4564.0000	329.124
4565.0000	328.957
4566.0000	328.641
4567.0000	329.006
4568.0000	330.995
4569.0000	329.023
4570.0000	327.541
4571.0000	329.337
4572.0000	330.288
4573.0000	332.03
4574.0000	332.653
4575.0000	328.817
4576.0000	327.184
4577.0000	329.851
4578.0000	330.558
4579.0000	331.017
4580.0000	332.852
4581.0000	330.469
4582.0000	327.002
4583.0000	328.325
4584.0000	327.9
4585.0000	331.072
4586.0000	336.558
4587.0000	333.727
4588.0000	329.928
4589.0000	330.755
4590.0000	330.494
4591.0000	329.133
4592.0000	328.585
4593.0000	327.984
4594.0000	329.647
4595.0000	331.442
4596.0000	327.914
4597.0000	325.115
4598.0000	327.143
4599.0000	330.127
4600.0000	332.901
4601.0000	331.817
4602.0000	329.908
4603.0000	330.717
4604.0000	328.415
4605.0000	327.041
4606.0000	330.999
4607.0000	333.767
4608.0000	332.138
4609.0000	330.484
4610.0000	330.944
4611.0000	332.087
4612.0000	330.726
4613.0000	333.068
4614.0000	335.234
4615.0000	333.618
4616.0000	331.327
4617.0000	329.923
4618.0000	330.966
4619.0000	329.567
4620.0000	331.471
4621.0000	329.358
4622.0000	326.965
4623.0000	331.149
4624.0000	328.123
4625.0000	326.163
4626.0000	330.557
4627.0000	332.94
4628.0000	331.293
4629.0000	325.673
4630.0000	325.095
4631.0000	329.662
4632.0000	331.038
4633.0000	329.362
4634.0000	329.924
4635.0000	330.197
4636.0000	328.199
4637.0000	331.472
4638.0000	331.983
4639.0000	332.79
4640.0000	333.606
4641.0000	328.093
4642.0000	328.001
4643.0000	332.909
4644.0000	332.279
4645.0000	328.217
4646.0000	327.496
4647.0000	327.379
4648.0000	328.232
4649.0000	329.431
4650.0000	328.376
4651.0000	328.101
4652.0000	329.184
4653.0000	329.631
4654.0000	332.534
4655.0000	334.663
4656.0000	331.149
4657.0000	328.628
4658.0000	331.034
4659.0000	332.691
4660.0000	331.555
4661.0000	328.018
4662.0000	327.486
4663.0000	331.743
4664.0000	331.034
4665.0000	330.997
4666.0000	332.111
4667.0000	332.345
4668.0000	331.477
4669.0000	329.95
4670.0000	329.797
4671.0000	328.213
4672.0000	330.532
4673.0000	329.632
4674.0000	329.437
4675.0000	331.557
4676.0000	327.763
4677.0000	328.088
4678.0000	327.787
4679.0000	326.554
4680.0000	331.526
4681.0000	332.811
4682.0000	331.347
4683.0000	332.029
4684.0000	334.363
4685.0000	331.723
4686.0000	327.625
4687.0000	331.21
4688.0000	332.827
4689.0000	334.389
4690.0000	332.67
4691.0000	328.169
4692.0000	328.868
4693.0000	327.244
4694.0000	323.092
4695.0000	326.817
4696.0000	332.897
4697.0000	329.007
4698.0000	327.396
4699.0000	328.916
4700.0000	327.637
4701.0000	329.109
4702.0000	330.979
4703.0000	332.203
4704.0000	333.008
4705.0000	332.396
4706.0000	328.63
4707.0000	326.326
4708.0000	327.02
4709.0000	327.09
4710.0000	327.354
4711.0000	331.345
4712.0000	332.373
4713.0000	327.444
4714.0000	328.451
4715.0000	329.172
4716.0000	327.599
4717.0000	330.575
4718.0000	327.1
4719.0000	322.905
4720.0000	328.058
4721.0000	328.654
4722.0000	329.03
4723.0000	333.396
4724.0000	331.422
4725.0000	328.169
4726.0000	328.663
4727.0000	330.232
4728.0000	328.235
4729.0000	327.048
4730.0000	330.363
4731.0000	332.368
4732.0000	333.598
4733.0000	330.556
4734.0000	329.056
4735.0000	329.387
4736.0000	327.702
4737.0000	330.712
4738.0000	332.1
4739.0000	329.031
4740.0000	329.101
4741.0000	330.154
4742.0000	328.295
4743.0000	330.978
4744.0000	332.417
4745.0000	331.309
4746.0000	330.016
4747.0000	329.178
4748.0000	331.572
4749.0000	330.78
4750.0000	331.549
4751.0000	335.173
4752.0000	333.352
4753.0000	328.978
4754.0000	329.814
4755.0000	332.055
4756.0000	329.347
4757.0000	327.569
4758.0000	329.273
4759.0000	327.798
4760.0000	329.859
4761.0000	332.329
4762.0000	329.589
4763.0000	332.955
4764.0000	334.965
4765.0000	331.525
4766.0000	330.035
4767.0000	329.765
4768.0000	329.772
4769.0000	330.024
4770.0000	327.676
4771.0000	327.228
4772.0000	329.709
4773.0000	328.964
4774.0000	327.712
4775.0000	328.882
4776.0000	330.582
4777.0000	330.664
4778.0000	330.117
4779.0000	328.749
4780.0000	327.342
4781.0000	327.99
4782.0000	328.59
4783.0000	329.01
4784.0000	331.116
4785.0000	331.798
4786.0000	331.487
4787.0000	330.373
4788.0000	329.313
4789.0000	332.072
4790.0000	331.301
4791.0000	328.487
4792.0000	330.518
4793.0000	333.2
4794.0000	331.625
4795.0000	330.177
4796.0000	330.42
4797.0000	326.771
4798.0000	326.749
4799.0000	329.436
4800.0000	329.671
4801.0000	330.065
4802.0000	331.567
4803.0000	330.443
4804.0000	328.124
4805.0000	330.16
4806.0000	331.766
4807.0000	329.441
4808.0000	330.198
4809.0000	331.974
4810.0000	333.353
4811.0000	330.771
4812.0000	326.32
4813.0000	328.467
4814.0000	329.153
4815.0000	330.125
4816.0000	332.201
4817.0000	330.94
4818.0000	329.568
4819.0000	330.318
4820.0000	331.864
4821.0000	332.005
4822.0000	330.186
4823.0000	329.561
4824.0000	328.629
4825.0000	328.262
4826.0000	329.343
4827.0000	330.516
4828.0000	331.827
4829.0000	331.07
4830.0000	330.957
4831.0000	331.345
4832.0000	331.21
4833.0000	327.117
4834.0000	328.926
4835.0000	331.765
4836.0000	329.974
4837.0000	334.389
4838.0000	334.103
4839.0000	332.953
4840.0000	333.641
4841.0000	332.992
4842.0000	329.778
4843.0000	329.004
4844.0000	328.412
4845.0000	327.126
4846.0000	328.418
4847.0000	328.825
4848.0000	329.137
4849.0000	328.904
4850.0000	328.711
4851.0000	325.736
4852.0000	327.216
4853.0000	329.972
4854.0000	331.372
4855.0000	333.612
4856.0000	335.355
4857.0000	333.116
4858.0000	327.771
4859.0000	329.224
4860.0000	332.439
4861.0000	333.973
4862.0000	333.795
4863.0000	329.916
4864.0000	333.542
4865.0000	335.026
4866.0000	330.387
4867.0000	330.546
4868.0000	328.382
4869.0000	326.546
4870.0000	327.331
4871.0000	327.637
4872.0000	328.448
4873.0000	332.112
4874.0000	334.13
4875.0000	331.001
4876.0000	329.852
4877.0000	328.484
4878.0000	327.462
4879.0000	329.895
4880.0000	327.325
4881.0000	325.563
4882.0000	331.419
4883.0000	332.785
4884.0000	330.189
4885.0000	332.975
4886.0000	334.774
4887.0000	330.766
4888.0000	329.309
4889.0000	327.576
4890.0000	325.809
4891.0000	330.867
4892.0000	331.455
4893.0000	329.749
4894.0000	327.916
4895.0000	325.637
4896.0000	327.913
4897.0000	327.092
4898.0000	327.195
4899.0000	333.263
4900.0000	334.576
4901.0000	330.003
4902.0000	328.716
4903.0000	330.549
4904.0000	329.984
4905.0000	328.118
4906.0000	330.03
4907.0000	330.854
4908.0000	330.434
4909.0000	328.638
4910.0000	328.6
4911.0000	330.412
4912.0000	332.708
4913.0000	333.512
4914.0000	331.342
4915.0000	330.482
4916.0000	330.692
4917.0000	328.043
4918.0000	327.43
4919.0000	328.803
4920.0000	328.228
4921.0000	332.566
4922.0000	333.259
4923.0000	331.223
4924.0000	329.515
4925.0000	329.416
4926.0000	331.947
4927.0000	334.223
4928.0000	331.291
4929.0000	329.837
4930.0000	330.046
4931.0000	329.958
4932.0000	333.449
4933.0000	332.597
4934.0000	327.651
4935.0000	325.069
4936.0000	327.484
4937.0000	330.483
4938.0000	330.922
4939.0000	331.621
4940.0000	331.9
4941.0000	331.516
4942.0000	328.134
4943.0000	327.767
4944.0000	332.158
4945.0000	330.597
4946.0000	327.845
4947.0000	327.418
4948.0000	330.337
4949.0000	329.563
4950.0000	327.865
4951.0000	328.627
4952.0000	326.487
4953.0000	326.544
4954.0000	329.366
4955.0000	328.226
4956.0000	329.505
4957.0000	329.916
4958.0000	330.235
4959.0000	334.614
4960.0000	331.373
4961.0000	328.229
4962.0000	333.115
4963.0000	336.572
4964.0000	335.678
4965.0000	332.799
4966.0000	330.374
4967.0000	327.963
4968.0000	328.798
4969.0000	331.196
4970.0000	331.675
4971.0000	330.778
4972.0000	329.077
4973.0000	328.921
4974.0000	329.842
4975.0000	330.861
4976.0000	330.689
4977.0000	332.56
4978.0000	332.546
4979.0000	330.654
4980.0000	330.227
4981.0000	328.361
4982.0000	327.458
4983.0000	326.587
4984.0000	327.713
4985.0000	328.851
4986.0000	326.181
4987.0000	325.343
4988.0000	326.928
4989.0000	328.37
4990.0000	329.486
4991.0000	328.654
4992.0000	326.615
4993.0000	327.16
4994.0000	330.59
4995.0000	332.164
4996.0000	329.33
4997.0000	329.757
4998.0000	333.654
4999.0000	332.651
5000.0000	330.237
